word_study,thisN,thisTrialN,thisRepN,slider.response,slider.rt,word_practice,reference,old_new,textbox.text,mouse.x,mouse.y,mouse.leftButton,mouse.midButton,mouse.rightButton,mouse.time,mouse.clicked_name,trials.thisRepN,trials.thisTrialN,trials.thisN,trials.thisIndex,trials_2.thisRepN,trials_2.thisTrialN,trials_2.thisN,trials_2.thisIndex,thisRow.t,notes,trial.started,text.started,slider.started,trial.stopped,trials.slider.response,trials.slider.rt,test.started,text_2.started,textbox.started,text_3.started,mouse.started,test.stopped,trials_2.textbox.text,trials_2.mouse.x,trials_2.mouse.y,trials_2.mouse.leftButton,trials_2.mouse.midButton,trials_2.mouse.rightButton,trials_2.mouse.time,trials_2.mouse.clicked_name,participant,session,date,expName,psychopyVersion,frameRate,expStart,
book,0,0,0,1.9955555555555555,1.610104682000383,,,,,,,,,,,,0,0,0,2,,,,,0.08295414600070217,,0.025637423001171555,0.08295414600070217,0.08295414600070217,1.6557341600000655,1.9955555555555555,1.610104682000383,,,,,,,,,,,,,,,779691,001,2024-10-28_14h50.14.415,WordPriming Experiment,2024.2.1,57.997450907508586,2024-10-28 14h50.23.505633 +0530,
marble,1,1,0,1.9955555555555555,1.3693984099991212,,,,,,,,,,,,0,1,1,12,,,,,1.684662138000931,,1.665559602999565,1.684662138000931,1.684662138000931,3.0530759829998715,1.9955555555555555,1.3693984099991212,,,,,,,,,,,,,,,779691,001,2024-10-28_14h50.14.415,WordPriming Experiment,2024.2.1,57.997450907508586,2024-10-28 14h50.23.505633 +0530,
police,2,2,0,2.9866666666666664,1.5629432149999047,,,,,,,,,,,,0,2,2,13,,,,,3.0781212719994073,,3.0591862910005148,3.0781212719994073,3.0781212719994073,4.642993180999838,2.9866666666666664,1.5629432149999047,,,,,,,,,,,,,,,779691,001,2024-10-28_14h50.14.415,WordPriming Experiment,2024.2.1,57.997450907508586,2024-10-28 14h50.23.505633 +0530,
piano ,3,3,0,4.013333333333334,1.4587397070008592,,,,,,,,,,,,0,3,3,4,,,,,4.666733150999789,,4.6483406700008345,4.666733150999789,4.666733150999789,6.129135641000175,4.013333333333334,1.4587397070008592,,,,,,,,,,,,,,,779691,001,2024-10-28_14h50.14.415,WordPriming Experiment,2024.2.1,57.997450907508586,2024-10-28 14h50.23.505633 +0530,
cake,4,4,0,1,1.6805418870007998,,,,,,,,,,,,0,4,4,7,,,,,6.153301284000918,,6.133650092000607,6.153301284000918,6.153301284000918,7.835384547999638,1,1.6805418870007998,,,,,,,,,,,,,,,779691,001,2024-10-28_14h50.14.415,WordPriming Experiment,2024.2.1,57.997450907508586,2024-10-28 14h50.23.505633 +0530,
cushion,5,5,0,2.013333333333333,1.1396048800015706,,,,,,,,,,,,0,5,5,3,,,,,7.862403817000086,,7.843391551999957,7.862403817000086,7.862403817000086,9.003542692000337,2.013333333333333,1.1396048800015706,,,,,,,,,,,,,,,779691,001,2024-10-28_14h50.14.415,WordPriming Experiment,2024.2.1,57.997450907508586,2024-10-28 14h50.23.505633 +0530,
tiger,6,6,0,1.0,1.1486820629997965,,,,,,,,,,,,0,6,6,1,,,,,9.030326604999573,,9.011048375999962,9.030326604999573,9.030326604999573,10.17910835800103,1.0,1.1486820629997965,,,,,,,,,,,,,,,779691,001,2024-10-28_14h50.14.415,WordPriming Experiment,2024.2.1,57.997450907508586,2024-10-28 14h50.23.505633 +0530,
poster,7,7,0,2.968888888888889,1.002895850000641,,,,,,,,,,,,0,7,7,10,,,,,10.202522052999484,,10.183939679000105,10.202522052999484,10.202522052999484,11.206518970000616,2.968888888888889,1.002895850000641,,,,,,,,,,,,,,,779691,001,2024-10-28_14h50.14.415,WordPriming Experiment,2024.2.1,57.997450907508586,2024-10-28 14h50.23.505633 +0530,
mouse,8,8,0,4.004444444444444,1.4059663200005161,,,,,,,,,,,,0,8,8,5,,,,,11.231833374000416,,11.212248035999437,11.231833374000416,11.231833374000416,12.638527963999877,4.004444444444444,1.4059663200005161,,,,,,,,,,,,,,,779691,001,2024-10-28_14h50.14.415,WordPriming Experiment,2024.2.1,57.997450907508586,2024-10-28 14h50.23.505633 +0530,
vase,9,9,0,3.9955555555555557,0.9090397330000997,,,,,,,,,,,,0,9,9,0,,,,,12.664087414001187,,12.644954544999564,12.664087414001187,12.664087414001187,13.575694772000134,3.9955555555555557,0.9090397330000997,,,,,,,,,,,,,,,779691,001,2024-10-28_14h50.14.415,WordPriming Experiment,2024.2.1,57.997450907508586,2024-10-28 14h50.23.505633 +0530,
pastry,10,10,0,1,1.3802212460013834,,,,,,,,,,,,0,10,10,6,,,,,13.60380910800086,,13.583008523999524,13.60380910800086,13.60380910800086,14.984312407001198,1,1.3802212460013834,,,,,,,,,,,,,,,779691,001,2024-10-28_14h50.14.415,WordPriming Experiment,2024.2.1,57.997450907508586,2024-10-28 14h50.23.505633 +0530,
chart,11,11,0,1,0.718405151999832,,,,,,,,,,,,0,11,11,14,,,,,15.009721985999931,,14.98961176299963,15.009721985999931,15.009721985999931,15.729756418999386,1,0.718405151999832,,,,,,,,,,,,,,,779691,001,2024-10-28_14h50.14.415,WordPriming Experiment,2024.2.1,57.997450907508586,2024-10-28 14h50.23.505633 +0530,
phone,12,12,0,1.9733333333333334,1.2481985089998489,,,,,,,,,,,,0,12,12,11,,,,,15.755384408999817,,15.73522535200027,15.755384408999817,15.755384408999817,17.002951338999992,1.9733333333333334,1.2481985089998489,,,,,,,,,,,,,,,779691,001,2024-10-28_14h50.14.415,WordPriming Experiment,2024.2.1,57.997450907508586,2024-10-28 14h50.23.505633 +0530,
cruise,13,13,0,2.9866666666666664,1.1347320839995518,,,,,,,,,,,,0,13,13,8,,,,,17.02877313799945,,17.008553101999496,17.02877313799945,17.02877313799945,18.16489861900118,2.9866666666666664,1.1347320839995518,,,,,,,,,,,,,,,779691,001,2024-10-28_14h50.14.415,WordPriming Experiment,2024.2.1,57.997450907508586,2024-10-28 14h50.23.505633 +0530,
keys,14,14,0,4.004444444444444,1.0585809749991313,,,,,,,,,,,,0,14,14,9,,,,,18.18966471299973,,18.170091841000612,18.18966471299973,18.18966471299973,19.24958601199978,4.004444444444444,1.0585809749991313,,,,,,,,,,,,,,,779691,001,2024-10-28_14h50.14.415,WordPriming Experiment,2024.2.1,57.997450907508586,2024-10-28 14h50.23.505633 +0530,
,0,0,0,,,p_s_r_y,pastry,old,pastry,[0.0],[-0.31444444444444447],[1],[0],[0],[2.9676860899999156],['text_3'],,,,,0,0,0,6,19.29654597499939,,,,,,,,19.265893502000836,19.29654597499939,19.29654597499939,19.29654597499939,0.016283368999211234,22.234436471000663,pastry,[0.0],[-0.31444444444444447],[1],[0],[0],[2.9676860899999156],['text_3'],779691,001,2024-10-28_14h50.14.415,WordPriming Experiment,2024.2.1,57.997450907508586,2024-10-28 14h50.23.505633 +0530,
,1,1,0,,,_e_c_l,pencil,new,pencil,[-0.023333333333333334],[-0.3111111111111111],[1],[0],[0],[2.68646102799903],['text_3'],,,,,0,1,1,16,22.258649270001115,,,,,,,,22.238176132001172,22.258649270001115,22.258649270001115,22.258649270001115,0.003564812001059181,24.925542992999908,pencil,[-0.023333333333333334],[-0.3111111111111111],[1],[0],[0],[2.68646102799903],['text_3'],779691,001,2024-10-28_14h50.14.415,WordPriming Experiment,2024.2.1,57.997450907508586,2024-10-28 14h50.23.505633 +0530,
,2,2,0,,,c_a_t,chart,old,chart,[-0.027777777777777776],[-0.31333333333333335],[1],[0],[0],[2.9227266310008417],['text_3'],,,,,0,2,2,14,24.94745559600051,,,,,,,,24.928688506999606,24.94745559600051,24.94745559600051,24.94745559600051,0.002999733000251581,27.852334434001023,chart,[-0.027777777777777776],[-0.31333333333333335],[1],[0],[0],[2.9227266310008417],['text_3'],779691,001,2024-10-28_14h50.14.415,WordPriming Experiment,2024.2.1,57.997450907508586,2024-10-28 14h50.23.505633 +0530,
,3,3,0,,,b_t_l_,bottle,new,bottle,[-0.02],[-0.29],[1],[0],[0],[2.8586117579998245],['text_3'],,,,,0,3,3,15,27.87381559499954,,,,,,,,27.85529919200053,27.87381559499954,27.87381559499954,27.87381559499954,0.0028169630004413193,30.71486623400051,bottle,[-0.02],[-0.29],[1],[0],[0],[2.8586117579998245],['text_3'],779691,001,2024-10-28_14h50.14.415,WordPriming Experiment,2024.2.1,57.997450907508586,2024-10-28 14h50.23.505633 +0530,
,4,4,0,,,p_l_c_,police,old,police,[-0.015555555555555555],[-0.31777777777777777],[1],[0],[0],[2.5113260010002705],['text_3'],,,,,0,4,4,13,30.73839647800014,,,,,,,,30.71880815500117,30.73839647800014,30.73839647800014,30.73839647800014,0.0035928510005760472,33.23131280999951,police,[-0.015555555555555555],[-0.31777777777777777],[1],[0],[0],[2.5113260010002705],['text_3'],779691,001,2024-10-28_14h50.14.415,WordPriming Experiment,2024.2.1,57.997450907508586,2024-10-28 14h50.23.505633 +0530,
,5,5,0,,,p_o_e,phone,old,police,[-0.014444444444444444],[-0.3],[1],[0],[0],[3.1767024590008077],['text_3'],,,,,0,5,5,11,33.256213820000994,,,,,,,,33.23549363100028,33.256213820000994,33.256213820000994,33.256213820000994,0.003938085999834584,36.41305698500037,police,[-0.014444444444444444],[-0.3],[1],[0],[0],[3.1767024590008077],['text_3'],779691,001,2024-10-28_14h50.14.415,WordPriming Experiment,2024.2.1,57.997450907508586,2024-10-28 14h50.23.505633 +0530,
,6,6,0,,,v_s_,vase,old,vase,[-0.014444444444444444],[-0.3111111111111111],[1],[0],[0],[2.5231411129989283],['text_3'],,,,,0,6,6,0,36.435373841999535,,,,,,,,36.41650281300099,36.435373841999535,36.435373841999535,36.435373841999535,0.0033073300000978634,38.94080403699991,vase,[-0.014444444444444444],[-0.3111111111111111],[1],[0],[0],[2.5231411129989283],['text_3'],779691,001,2024-10-28_14h50.14.415,WordPriming Experiment,2024.2.1,57.997450907508586,2024-10-28 14h50.23.505633 +0530,
,7,7,0,,,_a_t_p,laptop,new,laptop,[-0.027777777777777776],[-0.30777777777777776],[1],[0],[0],[3.269659978999698],['text_3'],,,,,0,7,7,17,38.963092617001166,,,,,,,,38.94446149400028,38.963092617001166,38.963092617001166,38.963092617001166,0.003462269000010565,42.21499354600019,laptop,[-0.027777777777777776],[-0.30777777777777776],[1],[0],[0],[3.269659978999698],['text_3'],779691,001,2024-10-28_14h50.14.415,WordPriming Experiment,2024.2.1,57.997450907508586,2024-10-28 14h50.23.505633 +0530,
,8,8,0,,,_i_n_,piano ,old,piano,[-0.03777777777777778],[-0.3211111111111111],[1],[0],[0],[2.3302004460001626],['text_3'],,,,,0,8,8,4,42.237633263001044,,,,,,,,42.218148984000436,42.237633263001044,42.237633263001044,42.237633263001044,0.0030057060012040893,44.54939532299977,piano,[-0.03777777777777778],[-0.3211111111111111],[1],[0],[0],[2.3302004460001626],['text_3'],779691,001,2024-10-28_14h50.14.415,WordPriming Experiment,2024.2.1,57.997450907508586,2024-10-28 14h50.23.505633 +0530,
,9,9,0,,,t_g_r,tiger,old,tiger,[-0.034444444444444444],[-0.30777777777777776],[1],[0],[0],[2.3308540570014884],['text_3'],,,,,0,9,9,1,44.57255901899953,,,,,,,,44.55295086800106,44.57255901899953,44.57255901899953,44.57255901899953,0.0033790030011005,46.884559584999806,tiger,[-0.034444444444444444],[-0.30777777777777776],[1],[0],[0],[2.3308540570014884],['text_3'],779691,001,2024-10-28_14h50.14.415,WordPriming Experiment,2024.2.1,57.997450907508586,2024-10-28 14h50.23.505633 +0530,
,10,10,0,,,m_a_b_e,marble,old,marble,[-0.01888888888888889],[-0.30333333333333334],[1],[0],[0],[2.6806902480002464],['text_3'],,,,,0,10,10,12,46.904480719000276,,,,,,,,46.88691642000049,46.904480719000276,46.904480719000276,46.904480719000276,0.0022975439987931168,49.56852503000118,marble,[-0.01888888888888889],[-0.30333333333333334],[1],[0],[0],[2.6806902480002464],['text_3'],779691,001,2024-10-28_14h50.14.415,WordPriming Experiment,2024.2.1,57.997450907508586,2024-10-28 14h50.23.505633 +0530,
,11,11,0,,,_e_s,keys,old,pens,[-0.013333333333333334],[-0.31222222222222223],[1],[0],[0],[8.628544315999534],['text_3'],,,,,0,11,11,9,49.5926117580002,,,,,,,,49.57204052099951,49.5926117580002,49.5926117580002,49.5926117580002,0.0033510049997858005,58.201612750001004,pens,[-0.013333333333333334],[-0.31222222222222223],[1],[0],[0],[8.628544315999534],['text_3'],779691,001,2024-10-28_14h50.14.415,WordPriming Experiment,2024.2.1,57.997450907508586,2024-10-28 14h50.23.505633 +0530,
,12,12,0,,,c_s_,case,new,case,[-0.015555555555555555],[-0.30333333333333334],[1],[0],[0],[2.674740036998628],['text_3'],,,,,0,12,12,19,58.22255633200075,,,,,,,,58.204123069999696,58.22255633200075,58.22255633200075,58.22255633200075,0.00237074700089579,60.88015974300106,case,[-0.015555555555555555],[-0.30333333333333334],[1],[0],[0],[2.674740036998628],['text_3'],779691,001,2024-10-28_14h50.14.415,WordPriming Experiment,2024.2.1,57.997450907508586,2024-10-28 14h50.23.505633 +0530,
,13,13,0,,,_a_e,cake,old,vase,[-0.013333333333333334],[-0.3011111111111111],[1],[0],[0],[2.4315403959990363],['text_3'],,,,,0,13,13,7,60.902985284999886,,,,,,,,60.88368267199985,60.902985284999886,60.902985284999886,60.902985284999886,0.003350082999531878,63.31620019799993,vase,[-0.013333333333333334],[-0.3011111111111111],[1],[0],[0],[2.4315403959990363],['text_3'],779691,001,2024-10-28_14h50.14.415,WordPriming Experiment,2024.2.1,57.997450907508586,2024-10-28 14h50.23.505633 +0530,
,14,14,0,,,m_u_e,mouse,old,mouse,[-0.01888888888888889],[-0.31222222222222223],[1],[0],[0],[3.4529842529991583],['text_3'],,,,,0,14,14,5,63.33900460800032,,,,,,,,63.31959521899989,63.33900460800032,63.33900460800032,63.33900460800032,0.0032458810001116944,66.77364918000058,mouse,[-0.01888888888888889],[-0.31222222222222223],[1],[0],[0],[3.4529842529991583],['text_3'],779691,001,2024-10-28_14h50.14.415,WordPriming Experiment,2024.2.1,57.997450907508586,2024-10-28 14h50.23.505633 +0530,
,15,15,0,,,_s_i_t,tshirt,new,,[],[],[],[],[],[],[],,,,,0,15,15,18,66.79650270400089,,,,,,,,66.77761450599974,66.79650270400089,66.79650270400089,66.79650270400089,0.003733479999937117,76.77652295000007,,[],[],[],[],[],[],[],779691,001,2024-10-28_14h50.14.415,WordPriming Experiment,2024.2.1,57.997450907508586,2024-10-28 14h50.23.505633 +0530,
,16,16,0,,,_o_t_r,poster,old,poster,[-0.012222222222222223],[-0.31222222222222223],[1],[0],[0],[4.6529307780001545],['text_3'],,,,,0,16,16,10,76.80229452499952,,,,,,,,76.78165454900045,76.80229452499952,76.80229452499952,76.80229452499952,0.00779506099934224,81.43568802600021,poster,[-0.012222222222222223],[-0.31222222222222223],[1],[0],[0],[4.6529307780001545],['text_3'],779691,001,2024-10-28_14h50.14.415,WordPriming Experiment,2024.2.1,57.997450907508586,2024-10-28 14h50.23.505633 +0530,
,17,17,0,,,b_o_,book,old,book,[-0.005555555555555556],[-0.31666666666666665],[1],[0],[0],[2.2535138780003763],['text_3'],,,,,0,17,17,2,81.4589290870008,,,,,,,,81.43890164000004,81.4589290870008,81.4589290870008,81.4589290870008,0.003033711998796207,83.69339777499954,book,[-0.005555555555555556],[-0.31666666666666665],[1],[0],[0],[2.2535138780003763],['text_3'],779691,001,2024-10-28_14h50.14.415,WordPriming Experiment,2024.2.1,57.997450907508586,2024-10-28 14h50.23.505633 +0530,
,18,18,0,,,c_u_s_,cruise,old,"cushion
",[0.016666666666666666],[-0.28888888888888886],[1],[0],[0],[9.836334448000343],['text_3'],,,,,0,18,18,8,83.71586057100103,,,,,,,,83.69702250299997,83.71586057100103,83.71586057100103,83.71586057100103,0.003455473000940401,93.53420635099974,"cushion
",[0.016666666666666666],[-0.28888888888888886],[1],[0],[0],[9.836334448000343],['text_3'],779691,001,2024-10-28_14h50.14.415,WordPriming Experiment,2024.2.1,57.997450907508586,2024-10-28 14h50.23.505633 +0530,
,19,19,0,,,_u_h_o_,cushion,old,cushion,[-0.016666666666666666],[-0.3055555555555556],[1],[0],[0],[3.0885918299991317],['text_3'],,,,,0,19,19,3,93.55764870200073,,,,,,,,93.53726473300048,93.55764870200073,93.55764870200073,93.55764870200073,0.0029173189996072324,96.62687644200014,cushion,[-0.016666666666666666],[-0.3055555555555556],[1],[0],[0],[3.0885918299991317],['text_3'],779691,001,2024-10-28_14h50.14.415,WordPriming Experiment,2024.2.1,57.997450907508586,2024-10-28 14h50.23.505633 +0530,
