stair.thisTrialN,stair.stepSize,stair.intensity,thisRow.t,notes,trial.started,fixation.started,grating.started,key_resp.started,fixation.stopped,grating.stopped,trial.stopped,corrAns,tilt,key_resp.corr,stair.response,key_resp.rt,participant,session,date,expName,psychopyVersion,frameRate,expStart,
0,2,10.0,0.029988262002007104,,0.013634816001285799,0.029988262002007104,0.5084828170001856,0.5084828170001856,0.5483528420008952,0.8126975650011445,1.5195887830050196,left,-10.0,1,1,0.9867709150057635,794988,001,2024-09-11_12h43.54.456,adaptive_staircase,2024.2.1,110.98429306298745,2024-09-11 12h43.59.821273 +0530,
1,2,8.0,1.5374438440048834,,1.5198534529990866,1.5374438440048834,2.0140612160030287,2.0140612160030287,2.0309856989988475,2.313767675004783,2.4490919900053996,right,8.0,1,1,0.43176089999906253,794988,001,2024-09-11_12h43.54.456,adaptive_staircase,2024.2.1,110.98429306298745,2024-09-11 12h43.59.821273 +0530,
2,2,6.0,2.4579007770007593,,2.449338604004879,2.4579007770007593,2.9467524540013983,2.9467524540013983,2.9467524540013983,3.241689155998756,3.4331380290022935,left,-6.0,1,1,0.4821910460013896,794988,001,2024-09-11_12h43.54.456,adaptive_staircase,2024.2.1,110.98429306298745,2024-09-11 12h43.59.821273 +0530,
3,2,4.0,3.4411598760052584,,3.4334113750010147,3.4411598760052584,3.9307446110033197,3.9307446110033197,3.9307446110033197,4.22520097400411,4.3610666430031415,right,4.0,1,1,0.4197257490013726,794988,001,2024-09-11_12h43.54.456,adaptive_staircase,2024.2.1,110.98429306298745,2024-09-11 12h43.59.821273 +0530,
4,2,2.0,4.366895473001932,,4.361337529000593,4.366895473001932,4.858153462999326,4.858153462999326,4.864352839002095,5.1472678990030545,5.326834648003569,left,-2.0,1,1,0.4578144430051907,794988,001,2024-09-11_12h43.54.456,adaptive_staircase,2024.2.1,110.98429306298745,2024-09-11 12h43.59.821273 +0530,
5,2,1.0,5.332309315999737,,5.3270511090013315,5.332309315999737,5.824925074004568,5.824925074004568,5.831063105004432,6.11389854799927,6.459802693003439,right,1.0,1,1,0.6233899369981373,794988,001,2024-09-11_12h43.54.456,adaptive_staircase,2024.2.1,110.98429306298745,2024-09-11 12h43.59.821273 +0530,
6,1,1.0,6.464800431000185,,6.460011202005262,6.464800431000185,6.958133915999497,6.958133915999497,6.964704066005652,7.247089741002128,7.410527357998944,right,1.0,0,0,0.44286407600156963,794988,001,2024-09-11_12h43.54.456,adaptive_staircase,2024.2.1,110.98429306298745,2024-09-11 12h43.59.821273 +0530,
7,1,2.0,7.415778793001664,,7.410777228004008,7.415778793001664,7.908017157998984,7.908017157998984,7.914488586000516,8.19661056699988,8.693462235998595,left,-2.0,1,1,0.7719385870004771,794988,001,2024-09-11_12h43.54.456,adaptive_staircase,2024.2.1,110.98429306298745,2024-09-11 12h43.59.821273 +0530,
8,1,2.0,8.703569736004283,,8.693708013001014,8.703569736004283,9.187643041004776,9.187643041004776,9.198623961005069,9.48193172700121,9.768594844004838,right,2.0,1,1,0.5693812730023637,794988,001,2024-09-11_12h43.54.456,adaptive_staircase,2024.2.1,110.98429306298745,2024-09-11 12h43.59.821273 +0530,
9,1,2.0,9.774521021005057,,9.768856760005292,9.774521021005057,10.265275434001524,10.265275434001524,10.27133062700159,10.565500513002917,10.839990926004248,right,2.0,1,1,0.5699855990023934,794988,001,2024-09-11_12h43.54.456,adaptive_staircase,2024.2.1,110.98429306298745,2024-09-11 12h43.59.821273 +0530,
10,1,1.0,10.848097043002781,,10.840235777999624,10.848097043002781,11.337903247003851,11.337903247003851,11.337903247003851,11.6484411440033,11.840297596005257,left,-1.0,1,1,0.4971060169991688,794988,001,2024-09-11_12h43.54.456,adaptive_staircase,2024.2.1,110.98429306298745,2024-09-11 12h43.59.821273 +0530,
11,1,1.0,11.847674746000848,,11.840503334002278,11.847674746000848,12.337321587001497,12.337321587001497,12.337321587001497,12.631458822004788,12.967771158000687,left,-1.0,1,1,0.6190712839961634,794988,001,2024-09-11_12h43.54.456,adaptive_staircase,2024.2.1,110.98429306298745,2024-09-11 12h43.59.821273 +0530,
12,1,1.0,12.972779689000163,,12.967979220004054,12.972779689000163,13.465607746999012,13.465607746999012,13.471870888999547,13.753484585999104,14.034617839999555,right,1.0,1,1,0.55887140899722,794988,001,2024-09-11_12h43.54.456,adaptive_staircase,2024.2.1,110.98429306298745,2024-09-11 12h43.59.821273 +0530,
13,1,1.0,14.040028436000284,,14.03483082800085,14.040028436000284,14.532103244004247,14.532103244004247,14.538380899000913,14.820417472001282,15.150701578000735,right,1.0,1,1,0.6053497629982303,794988,001,2024-09-11_12h43.54.456,adaptive_staircase,2024.2.1,110.98429306298745,2024-09-11 12h43.59.821273 +0530,
14,1,1.0,15.155894893003278,,15.150912556004187,15.155894893003278,15.664537709002616,15.664537709002616,15.664537709002616,15.95441460100119,16.239887705,left,-1.0,1,1,0.5726100860047154,794988,001,2024-09-11_12h43.54.456,adaptive_staircase,2024.2.1,110.98429306298745,2024-09-11 12h43.59.821273 +0530,
15,1,1.0,16.24808093500178,,16.24011604700354,16.24808093500178,16.737330862000817,16.737330862000817,16.737330862000817,17.031917500004056,17.4894379690013,right,1.0,1,1,0.7477135709996219,794988,001,2024-09-11_12h43.54.456,adaptive_staircase,2024.2.1,110.98429306298745,2024-09-11 12h43.59.821273 +0530,
16,1,1.0,17.49809947900212,,17.48969448400021,17.49809947900212,17.98726125700341,17.98726125700341,17.98726125700341,18.28197449000436,18.63962800399895,right,1.0,1,1,0.6466021679952973,794988,001,2024-09-11_12h43.54.456,adaptive_staircase,2024.2.1,110.98429306298745,2024-09-11 12h43.59.821273 +0530,
17,0.5,1.0,18.648564991999592,,18.63987558700319,18.648564991999592,19.13746846200229,19.13746846200229,19.13746846200229,19.4313924540038,19.584360288004973,left,-1.0,0,0,0.43914518400561064,794988,001,2024-09-11_12h43.54.456,adaptive_staircase,2024.2.1,110.98429306298745,2024-09-11 12h43.59.821273 +0530,
18,0.5,1.5,19.59010848899925,,19.584617494001577,19.59010848899925,20.081760376000602,20.081760376000602,20.087879872000485,20.381928285001777,20.834343368005648,right,1.5,0,0,0.7441518000050564,794988,001,2024-09-11_12h43.54.456,adaptive_staircase,2024.2.1,110.98429306298745,2024-09-11 12h43.59.821273 +0530,
19,0.5,2.0,20.839936727999884,,20.834590730002674,20.839936727999884,21.331875415002287,21.331875415002287,21.337375043003703,21.619882789003896,21.834704908003914,right,2.0,1,1,0.4948803779989248,794988,001,2024-09-11_12h43.54.456,adaptive_staircase,2024.2.1,110.98429306298745,2024-09-11 12h43.59.821273 +0530,
20,0.5,2.0,21.840292999004305,,21.834953613004473,21.840292999004305,22.33146487599879,22.33146487599879,22.337592486001085,22.619525521004107,22.933717074003653,left,-2.0,1,1,0.594174268997449,794988,001,2024-09-11_12h43.54.456,adaptive_staircase,2024.2.1,110.98429306298745,2024-09-11 12h43.59.821273 +0530,
21,0.5,2.0,22.938423507999687,,22.933891853004752,22.938423507999687,23.4319313110027,23.4319313110027,23.43810741800553,23.72028066799976,24.067220998003904,right,2.0,1,1,0.626625179000257,794988,001,2024-09-11_12h43.54.456,adaptive_staircase,2024.2.1,110.98429306298745,2024-09-11 12h43.59.821273 +0530,
22,0.5,1.5,24.072240916000737,,24.067438990001392,24.072240916000737,24.56536027900438,24.56536027900438,24.57180760900519,24.85223469199991,25.03959330300131,right,1.5,0,0,0.4686120149999624,794988,001,2024-09-11_12h43.54.456,adaptive_staircase,2024.2.1,110.98429306298745,2024-09-11 12h43.59.821273 +0530,
23,0.5,2.0,25.04754046400194,,25.0398464050013,25.04754046400194,25.537360267000622,25.537360267000622,25.537360267000622,25.831950505998975,25.96726725299959,right,2.0,1,1,0.418358957998862,794988,001,2024-09-11_12h43.54.456,adaptive_staircase,2024.2.1,110.98429306298745,2024-09-11 12h43.59.821273 +0530,
24,0.5,2.0,25.972979782003677,,25.967527020999114,25.972979782003677,26.46465898200404,26.46465898200404,26.470573901002354,26.75270362500305,26.906546281003102,right,2.0,0,0,0.4360656700009713,794988,001,2024-09-11_12h43.54.456,adaptive_staircase,2024.2.1,110.98429306298745,2024-09-11 12h43.59.821273 +0530,
25,0.5,2.5,26.914028999999573,,26.90676252900448,26.914028999999573,27.404214763999335,27.404214763999335,27.404214763999335,27.698202316998504,28.374054245003208,right,2.5,1,1,0.9639745980020962,794988,001,2024-09-11_12h43.54.456,adaptive_staircase,2024.2.1,110.98429306298745,2024-09-11 12h43.59.821273 +0530,
26,0.5,2.5,28.38090101200214,,28.37432142400212,28.38090101200214,28.87029912500293,28.87029912500293,28.87029912500293,29.16482781800005,30.22183329100517,right,2.5,0,0,1.3472096330006025,794988,001,2024-09-11_12h43.54.456,adaptive_staircase,2024.2.1,110.98429306298745,2024-09-11 12h43.59.821273 +0530,
27,0.5,3.0,30.23071021999931,,30.222042011999292,30.23071021999931,30.721318941999925,30.721318941999925,30.721318941999925,,30.75730505699903,right,3.0,1,1,0.03029633300320711,794988,001,2024-09-11_12h43.54.456,adaptive_staircase,2024.2.1,110.98429306298745,2024-09-11 12h43.59.821273 +0530,
28,0.5,3.0,30.764316031003546,,30.757570488000056,30.764316031003546,31.253868290004903,31.253868290004903,31.253868290004903,31.548168368004553,32.023359864004306,right,3.0,0,0,0.7648734829999739,794988,001,2024-09-11_12h43.54.456,adaptive_staircase,2024.2.1,110.98429306298745,2024-09-11 12h43.59.821273 +0530,
29,0.5,3.5,32.03108234800311,,32.0236131030033,32.03108234800311,32.520412918005604,32.520412918005604,32.520412918005604,32.814946183003485,34.667868263000855,left,-3.5,1,1,2.1415416859963443,794988,001,2024-09-11_12h43.54.456,adaptive_staircase,2024.2.1,110.98429306298745,2024-09-11 12h43.59.821273 +0530,
30,0.5,3.5,34.674535721998836,,34.66812672900414,34.674535721998836,35.16498711999884,35.16498711999884,35.17131645599875,35.465038141999685,35.7895712440004,right,3.5,1,1,0.621208790995297,794988,001,2024-09-11_12h43.54.456,adaptive_staircase,2024.2.1,110.98429306298745,2024-09-11 12h43.59.821273 +0530,
31,0.5,3.5,35.79753839300247,,35.78982915799861,35.79753839300247,36.28712908000307,36.28712908000307,36.28712908000307,36.58179402600217,37.033781395002734,left,-3.5,1,1,0.7395348569989437,794988,001,2024-09-11_12h43.54.456,adaptive_staircase,2024.2.1,110.98429306298745,2024-09-11 12h43.59.821273 +0530,
32,0.5,3.0,37.03923530300381,,37.03400689300179,37.03923530300381,37.53166650500498,37.53166650500498,37.537825179999345,37.82042632900266,38.257174942002166,right,3.0,1,1,0.722693795003579,794988,001,2024-09-11_12h43.54.456,adaptive_staircase,2024.2.1,110.98429306298745,2024-09-11 12h43.59.821273 +0530,
33,0.5,3.0,38.264136525998765,,38.257521078005084,38.264136525998765,38.75398391300405,38.75398391300405,38.75398391300405,39.04818660100136,39.5057738079995,left,-3.0,1,1,0.7487525380056468,794988,001,2024-09-11_12h43.54.456,adaptive_staircase,2024.2.1,110.98429306298745,2024-09-11 12h43.59.821273 +0530,
34,0.5,3.0,39.514315786000225,,39.5060310129993,39.514315786000225,40.00357884800178,40.00357884800178,40.00357884800178,40.29815032899933,40.50682012100151,right,3.0,1,1,0.4980357989988988,794988,001,2024-09-11_12h43.54.456,adaptive_staircase,2024.2.1,110.98429306298745,2024-09-11 12h43.59.821273 +0530,
35,0.5,2.5,40.514241552002204,,40.50707628600503,40.514241552002204,41.004024494002806,41.004024494002806,41.004024494002806,41.29826564700488,41.46820737000235,left,-2.5,1,1,0.4581480310007464,794988,001,2024-09-11_12h43.54.456,adaptive_staircase,2024.2.1,110.98429306298745,2024-09-11 12h43.59.821273 +0530,
36,0.5,2.5,41.474419748999935,,41.46846780600026,41.474419748999935,41.96486903800542,41.96486903800542,41.97110733400041,42.25386461800372,42.70507765799994,left,-2.5,0,0,0.7357365809948533,794988,001,2024-09-11_12h43.54.456,adaptive_staircase,2024.2.1,110.98429306298745,2024-09-11 12h43.59.821273 +0530,
37,0.5,3.0,42.71725814200181,,42.705436386000656,42.71725814200181,43.203306909003004,43.203306909003004,43.214842804998625,43.49813053300022,44.038284225003736,right,3.0,1,1,0.8294051799966837,794988,001,2024-09-11_12h43.54.456,adaptive_staircase,2024.2.1,110.98429306298745,2024-09-11 12h43.59.821273 +0530,
38,0.5,3.0,44.0473631040004,,44.03858687200409,44.0473631040004,44.536927957000444,44.536927957000444,44.536927957000444,44.83149928200146,45.80632186499861,right,3.0,1,1,1.2643271609995281,794988,001,2024-09-11_12h43.54.456,adaptive_staircase,2024.2.1,110.98429306298745,2024-09-11 12h43.59.821273 +0530,
39,0.5,3.0,45.814431933999,,45.806587412000226,45.814431933999,46.30358128200169,46.30358128200169,46.30358128200169,46.59796340500179,48.0071165929985,right,3.0,1,1,1.7002657630000613,794988,001,2024-09-11_12h43.54.456,adaptive_staircase,2024.2.1,110.98429306298745,2024-09-11 12h43.59.821273 +0530,
40,0.5,2.5,48.01381898100226,,48.00741034400562,48.01381898100226,48.50380801600113,48.50380801600113,48.50380801600113,48.79818463999982,50.25617782599875,right,2.5,0,0,1.7479664490019786,794988,001,2024-09-11_12h43.54.456,adaptive_staircase,2024.2.1,110.98429306298745,2024-09-11 12h43.59.821273 +0530,
41,0.5,3.0,50.26383783300116,,50.25644991000445,50.26383783300116,50.75370971600205,50.75370971600205,50.75370971600205,51.04786517500179,51.21803349000402,right,3.0,0,0,0.45848163399932673,794988,001,2024-09-11_12h43.54.456,adaptive_staircase,2024.2.1,110.98429306298745,2024-09-11 12h43.59.821273 +0530,
42,0.5,3.5,51.222255262000544,,51.21826001400041,51.222255262000544,51.71423452599993,51.71423452599993,51.71423452599993,52.003581803001,52.215643062998424,right,3.5,1,1,0.4942087960007484,794988,001,2024-09-11_12h43.54.456,adaptive_staircase,2024.2.1,110.98429306298745,2024-09-11 12h43.59.821273 +0530,
43,0.5,3.5,52.2199798080037,,52.215893462001986,52.2199798080037,52.714191140003095,52.714191140003095,52.71942480500002,53.002996344002895,53.96759539100458,right,3.5,0,0,1.2459748039982514,794988,001,2024-09-11_12h43.54.456,adaptive_staircase,2024.2.1,110.98429306298745,2024-09-11 12h43.59.821273 +0530,
44,0.5,4.0,53.971288972003094,,53.967768752001575,53.971288972003094,54.46487848000106,54.46487848000106,54.47151773200312,,54.70106873400073,left,-4.0,0,0,0.22388230499927886,794988,001,2024-09-11_12h43.54.456,adaptive_staircase,2024.2.1,110.98429306298745,2024-09-11 12h43.59.821273 +0530,
45,0.5,4.5,54.70547012099996,,54.70124116200168,54.70547012099996,55.197766703000525,55.197766703000525,55.203001779998885,55.4856880360021,55.95664991400554,left,-4.5,0,0,0.7531853609980317,794988,001,2024-09-11_12h43.54.456,adaptive_staircase,2024.2.1,110.98429306298745,2024-09-11 12h43.59.821273 +0530,
46,0.5,5.0,55.963984449001146,,55.95691616600379,55.963984449001146,56.45333352799935,56.45333352799935,56.45333352799935,56.74798165399989,59.05100674000278,left,-5.0,0,0,2.590651569000329,794988,001,2024-09-11_12h43.54.456,adaptive_staircase,2024.2.1,110.98429306298745,2024-09-11 12h43.59.821273 +0530,
47,0.5,5.5,59.05550929200399,,59.05127559399989,59.05550929200399,59.5477124780009,59.5477124780009,59.552984565998486,59.83624146000511,60.26748529299948,right,5.5,1,1,0.7127969169960124,794988,001,2024-09-11_12h43.54.456,adaptive_staircase,2024.2.1,110.98429306298745,2024-09-11 12h43.59.821273 +0530,
48,0.5,5.5,60.27183069899911,,60.26776107600017,60.27183069899911,60.764399044004676,60.764399044004676,60.7714387369997,61.05362227900332,61.50532993100205,right,5.5,1,1,0.7356304339991766,794988,001,2024-09-11_12h43.54.456,adaptive_staircase,2024.2.1,110.98429306298745,2024-09-11 12h43.59.821273 +0530,
49,0.5,5.5,61.514325615004054,,61.505544059000385,61.514325615004054,62.00338377799926,62.00338377799926,62.00338377799926,62.29775601300207,62.533719493003446,right,5.5,1,1,0.5207808869963628,794988,001,2024-09-11_12h43.54.456,adaptive_staircase,2024.2.1,110.98429306298745,2024-09-11 12h43.59.821273 +0530,
50,0.5,5.0,62.53776663300232,,62.53393299200252,62.53776663300232,63.03097749900189,63.03097749900189,63.036985429003835,63.320367405998695,63.533254150002904,left,-5.0,1,1,0.4914910130028147,794988,001,2024-09-11_12h43.54.456,adaptive_staircase,2024.2.1,110.98429306298745,2024-09-11 12h43.59.821273 +0530,
51,0.5,5.0,63.53720848300145,,63.53345981200255,63.53720848300145,64.03514047500357,64.03514047500357,64.03514047500357,64.33424261899927,64.52261814600206,right,5.0,1,1,0.48219314799644053,794988,001,2024-09-11_12h43.54.456,adaptive_staircase,2024.2.1,110.98429306298745,2024-09-11 12h43.59.821273 +0530,
52,0.5,5.0,64.53049090399873,,64.5228663980015,64.53049090399873,65.01999833599984,65.01999833599984,65.01999833599984,65.31456162700488,65.53936887199961,left,-5.0,1,1,0.5166219489983632,794988,001,2024-09-11_12h43.54.456,adaptive_staircase,2024.2.1,110.98429306298745,2024-09-11 12h43.59.821273 +0530,
53,0.5,4.5,65.54717136500403,,65.53962345600303,65.54717136500403,66.0363561750055,66.0363561750055,66.0363561750055,66.33111733400438,66.59998158700182,right,4.5,1,1,0.5565482019956107,794988,001,2024-09-11_12h43.54.456,adaptive_staircase,2024.2.1,110.98429306298745,2024-09-11 12h43.59.821273 +0530,
54,0.5,4.5,66.60414405500342,,66.60023194500536,66.60414405500342,67.09767849700438,67.09767849700438,67.10376587200153,67.38483879400155,67.55525527900318,left,-4.5,1,1,0.4529799390002154,794988,001,2024-09-11_12h43.54.456,adaptive_staircase,2024.2.1,110.98429306298745,2024-09-11 12h43.59.821273 +0530,
55,0.5,4.5,67.56395902700024,,67.55550862100063,67.56395902700024,68.05325812999945,68.05325812999945,68.05325812999945,68.34823985600087,68.40043698600493,left,-4.5,0,0,0.34122275600384455,794988,001,2024-09-11_12h43.54.456,adaptive_staircase,2024.2.1,110.98429306298745,2024-09-11 12h43.59.821273 +0530,
56,0.5,5.0,68.40476977800427,,68.40069763600331,68.40476977800427,68.90208617900498,68.90208617900498,68.91462204800337,69.20076338600484,69.43956790299853,right,5.0,0,0,0.534677196003031,794988,001,2024-09-11_12h43.54.456,adaptive_staircase,2024.2.1,110.98429306298745,2024-09-11 12h43.59.821273 +0530,
57,0.5,5.5,69.44675954300328,,69.43981961700047,69.44675954300328,69.93690635199891,69.93690635199891,69.93690635199891,70.23669175700343,70.77318106500024,left,-5.5,1,1,0.8311256609958946,794988,001,2024-09-11_12h43.54.456,adaptive_staircase,2024.2.1,110.98429306298745,2024-09-11 12h43.59.821273 +0530,
58,0.5,5.5,70.78098527700058,,70.7734277740019,70.78098527700058,71.26990598300472,71.26990598300472,71.26990598300472,71.56880350199935,71.66715363800176,right,5.5,1,1,0.38883967400033725,794988,001,2024-09-11_12h43.54.456,adaptive_staircase,2024.2.1,110.98429306298745,2024-09-11 12h43.59.821273 +0530,
59,0.5,5.5,71.67111973900319,,71.6673778100012,71.67111973900319,72.16429022000375,72.16429022000375,72.1705146470049,72.4527969289993,72.61774813100055,right,5.5,1,1,0.44656214700080454,794988,001,2024-09-11_12h43.54.456,adaptive_staircase,2024.2.1,110.98429306298745,2024-09-11 12h43.59.821273 +0530,
60,0.5,5.0,72.62260918899847,,72.61800283200137,72.62260918899847,73.11424441300187,73.11424441300187,73.12054236100084,73.40312409200124,73.4994659590011,right,5.0,1,1,0.37488807499903487,794988,001,2024-09-11_12h43.54.456,adaptive_staircase,2024.2.1,110.98429306298745,2024-09-11 12h43.59.821273 +0530,
61,0.5,5.0,73.5033284960009,,73.49967907300015,73.5033284960009,73.99791200700565,73.99791200700565,74.0043223840039,74.28614280799957,74.38365409499966,left,-5.0,0,0,0.3771362400002545,794988,001,2024-09-11_12h43.54.456,adaptive_staircase,2024.2.1,110.98429306298745,2024-09-11 12h43.59.821273 +0530,
62,0.5,5.5,74.38759473400569,,74.38387080500252,74.38759473400569,74.88090759500483,74.88090759500483,74.88672875300108,75.16883951199998,75.40607017300499,left,-5.5,1,1,0.5224329800039413,794988,001,2024-09-11_12h43.54.456,adaptive_staircase,2024.2.1,110.98429306298745,2024-09-11 12h43.59.821273 +0530,
63,0.5,5.5,75.41363976999855,,75.40632153900515,75.41363976999855,75.90268597700197,75.90268597700197,75.90268597700197,76.19787095200445,76.50556797999889,right,5.5,1,1,0.5982999650004786,794988,001,2024-09-11_12h43.54.456,adaptive_staircase,2024.2.1,110.98429306298745,2024-09-11 12h43.59.821273 +0530,
64,0.5,5.5,76.51407057200413,,76.50581303099898,76.51407057200413,77.00400648399955,77.00400648399955,77.00400648399955,77.30310073000146,77.58352298600221,left,-5.5,1,1,0.5689305120031349,794988,001,2024-09-11_12h43.54.456,adaptive_staircase,2024.2.1,110.98429306298745,2024-09-11 12h43.59.821273 +0530,
65,0.5,5.0,77.58784434300469,,77.58377391400427,77.58784434300469,78.08102689700172,78.08102689700172,78.08735515399894,78.36938216900307,78.59067394900194,left,-5.0,1,1,0.5032001899962779,794988,001,2024-09-11_12h43.54.456,adaptive_staircase,2024.2.1,110.98429306298745,2024-09-11 12h43.59.821273 +0530,
66,0.5,5.0,78.59719984700496,,78.5909250390032,78.59719984700496,79.08696362800401,79.08696362800401,79.08696362800401,79.38109042300493,79.57216606200382,left,-5.0,1,1,0.4803217649969156,794988,001,2024-09-11_12h43.54.456,adaptive_staircase,2024.2.1,110.98429306298745,2024-09-11 12h43.59.821273 +0530,
67,0.5,5.0,79.58029460800026,,79.57240874100535,79.58029460800026,80.0702922690034,80.0702922690034,80.0702922690034,80.36900751600479,80.53923135100194,left,-5.0,1,1,0.4638840469997376,794988,001,2024-09-11_12h43.54.456,adaptive_staircase,2024.2.1,110.98429306298745,2024-09-11 12h43.59.821273 +0530,
68,0.5,4.5,80.54705052300415,,80.53947909000271,80.54705052300415,81.03708563800319,81.03708563800319,81.03708563800319,81.3309118180041,81.62132608899992,right,4.5,1,1,0.5789717189982184,794988,001,2024-09-11_12h43.54.456,adaptive_staircase,2024.2.1,110.98429306298745,2024-09-11 12h43.59.821273 +0530,
69,0.5,4.5,81.63075491400377,,81.62153094100358,81.63075491400377,82.13090230500529,82.13090230500529,82.13090230500529,82.41961557900504,82.63361886700295,left,-4.5,1,1,0.4948641949958983,794988,001,2024-09-11_12h43.54.456,adaptive_staircase,2024.2.1,110.98429306298745,2024-09-11 12h43.59.821273 +0530,
70,0.5,4.5,82.63774900999852,,82.63386626300053,82.63774900999852,83.13088116600557,83.13088116600557,83.13692161300423,83.41868776300544,83.67209272300533,right,4.5,1,1,0.5361967200005893,794988,001,2024-09-11_12h43.54.456,adaptive_staircase,2024.2.1,110.98429306298745,2024-09-11 12h43.59.821273 +0530,
71,0.5,4.0,83.67992263699853,,83.67233916999976,83.67992263699853,84.16934142800164,84.16934142800164,84.16934142800164,84.46412123000482,84.57267551300174,left,-4.0,1,1,0.39866744399478193,794988,001,2024-09-11_12h43.54.456,adaptive_staircase,2024.2.1,110.98429306298745,2024-09-11 12h43.59.821273 +0530,
72,0.5,4.0,84.58072769700084,,84.57291776100465,84.58072769700084,85.0703185300008,85.0703185300008,85.0703185300008,85.36456176700449,85.71710619000078,left,-4.0,1,1,0.641389528005675,794988,001,2024-09-11_12h43.54.456,adaptive_staircase,2024.2.1,110.98429306298745,2024-09-11 12h43.59.821273 +0530,
73,0.5,4.0,85.72214132400404,,85.71740641100041,85.72214132400404,86.21402913900238,86.21402913900238,86.22040534100233,86.50352837399987,86.91592911400221,left,-4.0,1,1,0.6904798510004184,794988,001,2024-09-11_12h43.54.456,adaptive_staircase,2024.2.1,110.98429306298745,2024-09-11 12h43.59.821273 +0530,
74,0.5,3.5,86.91966004200367,,86.91612454200367,86.91966004200367,87.41422172899911,87.41422172899911,87.41422172899911,87.70284118199925,87.85654766900552,right,3.5,1,1,0.43640629400033504,794988,001,2024-09-11_12h43.54.456,adaptive_staircase,2024.2.1,110.98429306298745,2024-09-11 12h43.59.821273 +0530,
75,0.5,3.5,87.86455476600531,,87.85679087500466,87.86455476600531,88.35242438700516,88.35242438700516,88.35242438700516,88.6476868030004,89.03956166800344,left,-3.5,1,1,0.6820011060044635,794988,001,2024-09-11_12h43.54.456,adaptive_staircase,2024.2.1,110.98429306298745,2024-09-11 12h43.59.821273 +0530,
76,0.5,3.5,89.0468987320055,,89.03982137799903,89.0468987320055,89.53632277800352,89.53632277800352,89.53632277800352,89.83133581700531,89.93871516200306,right,3.5,1,1,0.39734648000012385,794988,001,2024-09-11_12h43.54.456,adaptive_staircase,2024.2.1,110.98429306298745,2024-09-11 12h43.59.821273 +0530,
77,0.5,3.0,89.94703747000312,,89.93896150700311,89.94703747000312,90.43609799100523,90.43609799100523,90.43609799100523,90.73082788200554,91.00060102400312,left,-3.0,1,1,0.5557451959975879,794988,001,2024-09-11_12h43.54.456,adaptive_staircase,2024.2.1,110.98429306298745,2024-09-11 12h43.59.821273 +0530,
78,0.5,3.0,91.00452257999859,,91.00081097400107,91.00452257999859,91.49765847500385,91.49765847500385,91.50305264000053,91.78584793000482,91.86683210900082,right,3.0,1,1,0.3635505759957596,794988,001,2024-09-11_12h43.54.456,adaptive_staircase,2024.2.1,110.98429306298745,2024-09-11 12h43.59.821273 +0530,
79,0.5,3.0,91.87104948000342,,91.86707586100238,91.87104948000342,92.36407364200568,92.36407364200568,92.37020130600285,92.65223132599931,92.78305097300472,right,3.0,0,0,0.410312307998538,794988,001,2024-09-11_12h43.54.456,adaptive_staircase,2024.2.1,110.98429306298745,2024-09-11 12h43.59.821273 +0530,
80,0.5,3.5,92.78694894300133,,92.78327444300521,92.78694894300133,93.28077328899963,93.28077328899963,93.2867569240043,93.56888441400224,93.77198579299875,left,-3.5,0,0,0.48580118900281377,794988,001,2024-09-11_12h43.54.456,adaptive_staircase,2024.2.1,110.98429306298745,2024-09-11 12h43.59.821273 +0530,
81,0.5,4.0,93.78050549999898,,93.77223122600117,93.78050549999898,94.26999307400547,94.26999307400547,94.26999307400547,94.56410912800493,94.80690296100511,right,4.0,1,1,0.5341182789998129,794988,001,2024-09-11_12h43.54.456,adaptive_staircase,2024.2.1,110.98429306298745,2024-09-11 12h43.59.821273 +0530,
82,0.5,4.0,94.81354088200169,,94.80715374300053,94.81354088200169,95.30354262200126,95.30354262200126,95.30354262200126,95.59712094900169,96.03268898800161,left,-4.0,1,1,0.7189469609947992,794988,001,2024-09-11_12h43.54.456,adaptive_staircase,2024.2.1,110.98429306298745,2024-09-11 12h43.59.821273 +0530,
83,0.5,4.0,96.03657368999848,,96.03293406800367,96.03657368999848,96.53084446800494,96.53084446800494,96.53723993099993,96.81963607000216,97.2652497980016,left,-4.0,1,1,0.7256540749949636,794988,001,2024-09-11_12h43.54.456,adaptive_staircase,2024.2.1,110.98429306298745,2024-09-11 12h43.59.821273 +0530,
84,0.5,3.5,97.26910859499912,,97.2654599400048,97.26910859499912,97.7637679440013,97.7637679440013,97.7637679440013,98.05168782100372,98.2053190190054,right,3.5,1,1,0.4358866339971428,794988,001,2024-09-11_12h43.54.456,adaptive_staircase,2024.2.1,110.98429306298745,2024-09-11 12h43.59.821273 +0530,
85,0.5,3.5,98.21416808199865,,98.20558845400228,98.21416808199865,98.70270954300213,98.70270954300213,98.70270954300213,98.99763110800268,99.39954905600462,right,3.5,1,1,0.6859589390005567,794988,001,2024-09-11_12h43.54.456,adaptive_staircase,2024.2.1,110.98429306298745,2024-09-11 12h43.59.821273 +0530,
86,0.5,3.5,99.403692382999,,99.3997949830009,99.403692382999,99.89713196900266,99.89713196900266,99.89713196900266,100.18613508099952,100.48318100000324,left,-3.5,1,1,0.5762609169978532,794988,001,2024-09-11_12h43.54.456,adaptive_staircase,2024.2.1,110.98429306298745,2024-09-11 12h43.59.821273 +0530,
87,0.5,3.0,100.48708622200502,,100.48341118299868,100.48708622200502,100.98085864099994,100.98085864099994,100.987111456001,101.26888082700316,101.63257769300253,left,-3.0,1,1,0.6419739830016624,794988,001,2024-09-11_12h43.54.456,adaptive_staircase,2024.2.1,110.98429306298745,2024-09-11 12h43.59.821273 +0530,
88,0.5,3.0,101.63624084400362,,101.63276179900276,101.63624084400362,102.13120408000395,102.13120408000395,102.13120408000395,102.42001247300504,102.71998482200434,right,3.0,1,1,0.5847949949966278,794988,001,2024-09-11_12h43.54.456,adaptive_staircase,2024.2.1,110.98429306298745,2024-09-11 12h43.59.821273 +0530,
89,0.5,3.0,102.73028350100503,,102.72022720400128,102.73028350100503,103.21377215399843,103.21377215399843,103.21984196700214,103.50319890000537,103.68947507000121,left,-3.0,1,1,0.46943733399530174,794988,001,2024-09-11_12h43.54.456,adaptive_staircase,2024.2.1,110.98429306298745,2024-09-11 12h43.59.821273 +0530,
90,0.5,2.5,103.69672742600233,,103.6897248450041,103.69672742600233,104.1859629640021,104.1859629640021,104.1859629640021,104.48537772800046,104.74965838000207,right,2.5,1,1,0.5552099350024946,794988,001,2024-09-11_12h43.54.456,adaptive_staircase,2024.2.1,110.98429306298745,2024-09-11 12h43.59.821273 +0530,
91,0.5,2.5,104.75402010200196,,104.74990102399897,104.75402010200196,105.24728798900469,105.24728798900469,105.25373345700064,105.53506788099912,105.9390229710043,right,2.5,1,1,0.6881984560022829,794988,001,2024-09-11_12h43.54.456,adaptive_staircase,2024.2.1,110.98429306298745,2024-09-11 12h43.59.821273 +0530,
92,0.5,2.5,105.94647397100198,,105.93922682999982,105.94647397100198,106.43623784200463,106.43623784200463,106.43623784200463,106.73078115800308,107.05580889900011,left,-2.5,1,1,0.6152407010013121,794988,001,2024-09-11_12h43.54.456,adaptive_staircase,2024.2.1,110.98429306298745,2024-09-11 12h43.59.821273 +0530,
93,0.5,2.0,107.06336356700194,,107.05606433399953,107.06336356700194,107.55328121699858,107.55328121699858,107.55328121699858,107.84724197600008,108.46630135900341,right,2.0,1,1,0.9013622670026962,794988,001,2024-09-11_12h43.54.456,adaptive_staircase,2024.2.1,110.98429306298745,2024-09-11 12h43.59.821273 +0530,
94,0.5,2.0,108.47030928399909,,108.4665474420035,108.47030928399909,108.96413963899977,108.96413963899977,108.97012169600202,109.25267298600374,109.59923795800569,right,2.0,1,1,0.6267401120057912,794988,001,2024-09-11_12h43.54.456,adaptive_staircase,2024.2.1,110.98429306298745,2024-09-11 12h43.59.821273 +0530,
95,0.5,2.0,109.60310702300194,,109.59947722400102,109.60310702300194,110.09723927400046,110.09723927400046,110.10345712600247,110.38578336800128,110.97281781600032,right,2.0,1,1,0.87045775000297,794988,001,2024-09-11_12h43.54.456,adaptive_staircase,2024.2.1,110.98429306298745,2024-09-11 12h43.59.821273 +0530,
96,0.5,1.5,110.98086877700553,,110.97306966999895,110.98086877700553,111.46918931200344,111.46918931200344,111.46918931200344,111.76380925199919,111.98857499199949,right,1.5,0,0,0.5158717219965183,794988,001,2024-09-11_12h43.54.456,adaptive_staircase,2024.2.1,110.98429306298745,2024-09-11 12h43.59.821273 +0530,
97,0.5,2.0,111.99727651900321,,111.98882544100343,111.99727651900321,112.48609678900539,112.48609678900539,112.48609678900539,112.78032828400319,113.40483266799856,left,-2.0,1,1,0.913098352997622,794988,001,2024-09-11_12h43.54.456,adaptive_staircase,2024.2.1,110.98429306298745,2024-09-11 12h43.59.821273 +0530,
98,0.5,2.0,113.41333743300493,,113.40504306700313,113.41333743300493,113.90246280200518,113.90246280200518,113.90246280200518,114.19656946200121,114.57189627800108,left,-2.0,1,1,0.6637836160007282,794988,001,2024-09-11_12h43.54.456,adaptive_staircase,2024.2.1,110.98429306298745,2024-09-11 12h43.59.821273 +0530,
99,0.5,2.0,114.5802916850007,,114.57216348600195,114.5802916850007,115.06957297200279,115.06957297200279,115.06957297200279,115.36846329800028,115.79903172200284,right,2.0,1,1,0.7181490119983209,794988,001,2024-09-11_12h43.54.456,adaptive_staircase,2024.2.1,110.98429306298745,2024-09-11 12h43.59.821273 +0530,
