thisN,thisTrialN,thisRepN,mouse.x,mouse.y,mouse.leftButton,mouse.midButton,mouse.rightButton,mouse.time,mouse.clicked_name,trials.thisRepN,trials.thisTrialN,trials.thisN,trials.thisIndex,thisRow.t,notes,num_distr,trial.started,fixation.started,target.started,mouse.started,trial.stopped,trials.mouse.x,trials.mouse.y,trials.mouse.leftButton,trials.mouse.midButton,trials.mouse.rightButton,trials.mouse.time,trials.mouse.clicked_name,participant,session,date,expName,psychopyVersion,frameRate,expStart,
0,0,0,[-0.021111111111111112],[-0.028888888888888888],[1],[0],[0],[1.3736225640022894],['target'],0,0,0,0,0.05257392599742161,,5,0.024676719000126468,0.05257392599742161,0.05257392599742161,0.0242565119988285,1.3991309749981156,[-0.021111111111111112],[-0.028888888888888888],[1],[0],[0],[1.3736225640022894],['target'],401422,001,2024-10-10_13h22.05.025,VISUALSEARCH,2024.2.1,None,2024-10-10 13h22.25.709866 +0530,
1,0,1,[-0.2544444444444444],[0.4688888888888889],[1],[0],[0],[1.6765811599980225],['target'],1,0,1,0,1.4268599329989229,,5,1.4154953679972095,1.4268599329989229,1.4268599329989229,0.01602532600008999,3.092636596997181,[-0.2544444444444444],[0.4688888888888889],[1],[0],[0],[1.6765811599980225],['target'],401422,001,2024-10-10_13h22.05.025,VISUALSEARCH,2024.2.1,None,2024-10-10 13h22.25.709866 +0530,
2,0,2,[0.4288888888888889],[0.2111111111111111],[1],[0],[0],[1.3126617909983906],['target'],2,0,2,0,3.121106032998796,,5,3.110043812997901,3.121106032998796,3.121106032998796,0.01719856300042011,4.423165984997468,[0.4288888888888889],[0.2111111111111111],[1],[0],[0],[1.3126617909983906],['target'],401422,001,2024-10-10_13h22.05.025,VISUALSEARCH,2024.2.1,None,2024-10-10 13h22.25.709866 +0530,
3,0,3,[-0.31333333333333335],[0.2911111111111111],[1],[0],[0],[1.2916269499983173],['target'],3,0,3,0,4.471748390998982,,10,4.455186833998596,4.471748390998982,4.471748390998982,0.031850246003159555,5.747335557000042,[-0.31333333333333335],[0.2911111111111111],[1],[0],[0],[1.2916269499983173],['target'],401422,001,2024-10-10_13h22.05.025,VISUALSEARCH,2024.2.1,None,2024-10-10 13h22.25.709866 +0530,
4,0,4,[-0.013333333333333334],[0.23333333333333334],[1],[0],[0],[1.1729115939997428],['target'],4,0,4,0,5.77376921999894,,5,5.76256604199807,5.77376921999894,5.77376921999894,0.014914089002559194,6.936003722999885,[-0.013333333333333334],[0.23333333333333334],[1],[0],[0],[1.1729115939997428],['target'],401422,001,2024-10-10_13h22.05.025,VISUALSEARCH,2024.2.1,None,2024-10-10 13h22.25.709866 +0530,
5,0,5,[0.29],[0.4888888888888889],[1],[0],[0],[2.287027948001196],['target'],5,0,5,0,6.966274954000255,,5,6.953118040997651,6.966274954000255,6.966274954000255,0.016907837001781445,9.240676166999037,[0.29],[0.4888888888888889],[1],[0],[0],[2.287027948001196],['target'],401422,001,2024-10-10_13h22.05.025,VISUALSEARCH,2024.2.1,None,2024-10-10 13h22.25.709866 +0530,
6,0,6,[-0.39],[-0.41333333333333333],[1],[0],[0],[2.151341910001065],['target'],6,0,6,0,9.286902764997649,,10,9.270529336998152,9.286902764997649,9.286902764997649,0.0296808589991997,11.42229063099876,[-0.39],[-0.41333333333333333],[1],[0],[0],[2.151341910001065],['target'],401422,001,2024-10-10_13h22.05.025,VISUALSEARCH,2024.2.1,None,2024-10-10 13h22.25.709866 +0530,
7,0,7,[-0.39222222222222225],[0.2833333333333333],[1],[0],[0],[1.4494471750003868],['target'],7,0,7,0,11.448464657998557,,5,11.437221618998592,11.448464657998557,11.448464657998557,0.014752506998775061,12.887233441997523,[-0.39222222222222225],[0.2833333333333333],[1],[0],[0],[1.4494471750003868],['target'],401422,001,2024-10-10_13h22.05.025,VISUALSEARCH,2024.2.1,None,2024-10-10 13h22.25.709866 +0530,
8,0,8,[-0.24],[0.05],[1],[0],[0],[1.6837239229971601],['target'],8,0,8,0,12.928970191998815,,10,12.913856703999045,12.928970191998815,12.928970191998815,0.026469494001503335,14.5984251459995,[-0.24],[0.05],[1],[0],[0],[1.6837239229971601],['target'],401422,001,2024-10-10_13h22.05.025,VISUALSEARCH,2024.2.1,None,2024-10-10 13h22.25.709866 +0530,
9,0,9,[-0.20222222222222222],[-0.41444444444444445],[1],[0],[0],[1.6146216330016614],['target'],9,0,9,0,14.624552973000391,,5,14.613241193997965,14.624552973000391,14.624552973000391,0.014561990999936825,16.228258987997833,[-0.20222222222222222],[-0.41444444444444445],[1],[0],[0],[1.6146216330016614],['target'],401422,001,2024-10-10_13h22.05.025,VISUALSEARCH,2024.2.1,None,2024-10-10 13h22.25.709866 +0530,
10,0,10,[0.4911111111111111],[0.30444444444444446],[1],[0],[0],[1.7058687380012998],['target'],10,0,10,0,16.256688908997603,,5,16.24593088199981,16.256688908997603,16.256688908997603,0.0176504869996279,17.952373496998916,[0.4911111111111111],[0.30444444444444446],[1],[0],[0],[1.7058687380012998],['target'],401422,001,2024-10-10_13h22.05.025,VISUALSEARCH,2024.2.1,None,2024-10-10 13h22.25.709866 +0530,
11,0,11,[-0.13333333333333333],[0.45444444444444443],[1],[0],[0],[1.5061596989980899],['target'],11,0,11,0,17.9969756879982,,10,17.981574846999138,17.9969756879982,17.9969756879982,0.028987879999476718,19.488119669997104,[-0.13333333333333333],[0.45444444444444443],[1],[0],[0],[1.5061596989980899],['target'],401422,001,2024-10-10_13h22.05.025,VISUALSEARCH,2024.2.1,None,2024-10-10 13h22.25.709866 +0530,
12,0,12,[-0.22],[-0.2],[1],[0],[0],[1.6096872790003545],['target'],12,0,12,0,19.530477046999295,,10,19.51559096100027,19.530477046999295,19.530477046999295,0.02731996000147774,21.125798828998086,[-0.22],[-0.2],[1],[0],[0],[1.6096872790003545],['target'],401422,001,2024-10-10_13h22.05.025,VISUALSEARCH,2024.2.1,None,2024-10-10 13h22.25.709866 +0530,
13,0,13,[0.22444444444444445],[0.47333333333333333],[1],[0],[0],[1.8743190099994536],['target'],13,0,13,0,21.17114617900006,,10,21.156381130000227,21.17114617900006,21.17114617900006,0.03037493499869015,23.031669435997173,[0.22444444444444445],[0.47333333333333333],[1],[0],[0],[1.8743190099994536],['target'],401422,001,2024-10-10_13h22.05.025,VISUALSEARCH,2024.2.1,None,2024-10-10 13h22.25.709866 +0530,
14,0,14,[0.005555555555555556],[0.3877777777777778],[1],[0],[0],[1.2862456430011662],['target'],14,0,14,0,23.06014491699898,,5,23.049452780000138,23.06014491699898,23.06014491699898,0.01750599700244493,24.33630658399852,[0.005555555555555556],[0.3877777777777778],[1],[0],[0],[1.2862456430011662],['target'],401422,001,2024-10-10_13h22.05.025,VISUALSEARCH,2024.2.1,None,2024-10-10 13h22.25.709866 +0530,
15,0,15,[-0.13777777777777778],[-0.03888888888888889],[1],[0],[0],[1.2752361550010392],['target'],15,0,15,0,24.36560620599994,,5,24.35393877000024,24.36560620599994,24.36560620599994,0.01746786999865435,25.62983685799918,[-0.13777777777777778],[-0.03888888888888889],[1],[0],[0],[1.2752361550010392],['target'],401422,001,2024-10-10_13h22.05.025,VISUALSEARCH,2024.2.1,None,2024-10-10 13h22.25.709866 +0530,
16,0,16,[0.32],[-0.44333333333333336],[1],[0],[0],[2.258620904998679],['target'],16,0,16,0,25.658096002000093,,5,25.64610648300004,25.658096002000093,25.658096002000093,0.016036110999266384,27.905538437997166,[0.32],[-0.44333333333333336],[1],[0],[0],[2.258620904998679],['target'],401422,001,2024-10-10_13h22.05.025,VISUALSEARCH,2024.2.1,None,2024-10-10 13h22.25.709866 +0530,
17,0,17,[-0.29888888888888887],[0.10555555555555556],[1],[0],[0],[1.6280792299985478],['target'],17,0,17,0,27.936581431000377,,5,27.924226491999434,27.936581431000377,27.936581431000377,0.01843249300145544,29.5531071789992,[-0.29888888888888887],[0.10555555555555556],[1],[0],[0],[1.6280792299985478],['target'],401422,001,2024-10-10_13h22.05.025,VISUALSEARCH,2024.2.1,None,2024-10-10 13h22.25.709866 +0530,
18,0,18,[-0.3233333333333333],[0.4077777777777778],[1],[0],[0],[1.6566454300009354],['target'],18,0,18,0,29.584278827998787,,5,29.57230194099975,29.584278827998787,29.584278827998787,0.018933624000055715,31.229680680997262,[-0.3233333333333333],[0.4077777777777778],[1],[0],[0],[1.6566454300009354],['target'],401422,001,2024-10-10_13h22.05.025,VISUALSEARCH,2024.2.1,None,2024-10-10 13h22.25.709866 +0530,
19,0,19,[0.09222222222222222],[0.23777777777777778],[1],[0],[0],[1.3987053710006876],['target'],19,0,19,0,31.275004065999383,,10,31.258255564996944,31.275004065999383,31.275004065999383,0.02839061000122456,32.65736201300024,[0.09222222222222222],[0.23777777777777778],[1],[0],[0],[1.3987053710006876],['target'],401422,001,2024-10-10_13h22.05.025,VISUALSEARCH,2024.2.1,None,2024-10-10 13h22.25.709866 +0530,
20,0,20,[-0.10666666666666667],[0.3933333333333333],[1],[0],[0],[1.5257525499982876],['target'],20,0,20,0,32.70189224299975,,10,32.68576617399958,32.70189224299975,32.70189224299975,0.02823041000010562,34.21196601799966,[-0.10666666666666667],[0.3933333333333333],[1],[0],[0],[1.5257525499982876],['target'],401422,001,2024-10-10_13h22.05.025,VISUALSEARCH,2024.2.1,None,2024-10-10 13h22.25.709866 +0530,
21,0,21,[-0.38333333333333336],[0.4211111111111111],[1],[0],[0],[1.1429719849984394],['target'],21,0,21,0,34.23708368900043,,5,34.226054679998924,34.23708368900043,34.23708368900043,0.013931200999650173,35.369688102997316,[-0.38333333333333336],[0.4211111111111111],[1],[0],[0],[1.1429719849984394],['target'],401422,001,2024-10-10_13h22.05.025,VISUALSEARCH,2024.2.1,None,2024-10-10 13h22.25.709866 +0530,
22,0,22,[0.12222222222222222],[-0.4388888888888889],[1],[0],[0],[2.1958603439998114],['target'],22,0,22,0,35.395113572998525,,5,35.38417488699997,35.395113572998525,35.395113572998525,0.014350704001117265,37.580832872998144,[0.12222222222222222],[-0.4388888888888889],[1],[0],[0],[2.1958603439998114],['target'],401422,001,2024-10-10_13h22.05.025,VISUALSEARCH,2024.2.1,None,2024-10-10 13h22.25.709866 +0530,
23,0,23,[0.28],[0.26],[1],[0],[0],[1.578550975998951],['target'],23,0,23,0,37.62742158199762,,10,37.61172138599795,37.62742158199762,37.62742158199762,0.030557100999430986,39.19069711100019,[0.28],[0.26],[1],[0],[0],[1.578550975998951],['target'],401422,001,2024-10-10_13h22.05.025,VISUALSEARCH,2024.2.1,None,2024-10-10 13h22.25.709866 +0530,
24,0,24,[0.38333333333333336],[0.4177777777777778],[1],[0],[0],[1.3886850900016725],['target'],24,0,24,0,39.23605211500035,,10,39.21835846799877,39.23605211500035,39.23605211500035,0.02748298599908594,40.60751301599885,[0.38333333333333336],[0.4177777777777778],[1],[0],[0],[1.3886850900016725],['target'],401422,001,2024-10-10_13h22.05.025,VISUALSEARCH,2024.2.1,None,2024-10-10 13h22.25.709866 +0530,
25,0,25,[0.3288888888888889],[-0.02],[1],[0],[0],[1.4862208790000295],['target'],25,0,25,0,40.636763670998334,,5,40.624301126998034,40.636763670998334,40.636763670998334,0.01658425400091801,42.11093559499932,[0.3288888888888889],[-0.02],[1],[0],[0],[1.4862208790000295],['target'],401422,001,2024-10-10_13h22.05.025,VISUALSEARCH,2024.2.1,None,2024-10-10 13h22.25.709866 +0530,
26,0,26,[0.2788888888888889],[-0.28555555555555556],[1],[0],[0],[2.0258011969999643],['target'],26,0,26,0,42.15343524799755,,10,42.138310897997144,42.15343524799755,42.15343524799755,0.027234132001467515,44.165132374997484,[0.2788888888888889],[-0.28555555555555556],[1],[0],[0],[2.0258011969999643],['target'],401422,001,2024-10-10_13h22.05.025,VISUALSEARCH,2024.2.1,None,2024-10-10 13h22.25.709866 +0530,
27,0,27,[0.3022222222222222],[-0.09222222222222222],[1],[0],[0],[1.1330137840013776],['target'],27,0,27,0,44.19271600199863,,5,44.1813021199996,44.19271600199863,44.19271600199863,0.015939794000587426,45.31496338699799,[0.3022222222222222],[-0.09222222222222222],[1],[0],[0],[1.1330137840013776],['target'],401422,001,2024-10-10_13h22.05.025,VISUALSEARCH,2024.2.1,None,2024-10-10 13h22.25.709866 +0530,
28,0,28,[-0.46555555555555556],[0.39],[1],[0],[0],[2.039909183000418],['target'],28,0,28,0,45.3439925269995,,5,45.330801173997315,45.3439925269995,45.3439925269995,0.015687487000832334,47.371181436999905,[-0.46555555555555556],[0.39],[1],[0],[0],[2.039909183000418],['target'],401422,001,2024-10-10_13h22.05.025,VISUALSEARCH,2024.2.1,None,2024-10-10 13h22.25.709866 +0530,
29,0,29,[0.3988888888888889],[-0.4677777777777778],[1],[0],[0],[3.4489909240000998],['target'],29,0,29,0,47.42486093899788,,10,47.407270168998366,47.42486093899788,47.42486093899788,0.03584513900204911,50.856780056998105,[0.3988888888888889],[-0.4677777777777778],[1],[0],[0],[3.4489909240000998],['target'],401422,001,2024-10-10_13h22.05.025,VISUALSEARCH,2024.2.1,None,2024-10-10 13h22.25.709866 +0530,
30,0,30,[-0.052222222222222225],[0.16777777777777778],[1],[0],[0],[1.7166558600001736],['target'],30,0,30,0,50.900730979999935,,10,50.88485529599711,50.900730979999935,50.900730979999935,0.027890481000213185,52.60204370899737,[-0.052222222222222225],[0.16777777777777778],[1],[0],[0],[1.7166558600001736],['target'],401422,001,2024-10-10_13h22.05.025,VISUALSEARCH,2024.2.1,None,2024-10-10 13h22.25.709866 +0530,
31,0,31,[-0.3322222222222222],[-0.2111111111111111],[1],[0],[0],[1.3507823090003512],['target'],31,0,31,0,52.63088729899755,,5,52.61913022799854,52.63088729899755,52.63088729899755,0.016825024998979643,53.97044332799851,[-0.3322222222222222],[-0.2111111111111111],[1],[0],[0],[1.3507823090003512],['target'],401422,001,2024-10-10_13h22.05.025,VISUALSEARCH,2024.2.1,None,2024-10-10 13h22.25.709866 +0530,
32,0,32,[0.16333333333333333],[0.035555555555555556],[1],[0],[0],[1.450170022999373],['target'],32,0,32,0,53.995433281997975,,5,53.98473332600042,53.995433281997975,53.995433281997975,0.014136912999674678,55.435822516999906,[0.16333333333333333],[0.035555555555555556],[1],[0],[0],[1.450170022999373],['target'],401422,001,2024-10-10_13h22.05.025,VISUALSEARCH,2024.2.1,None,2024-10-10 13h22.25.709866 +0530,
33,0,33,[-0.1388888888888889],[-0.23555555555555555],[1],[0],[0],[2.6364990469992335],['target'],33,0,33,0,55.48583614499876,,10,55.46902979799779,55.48583614499876,55.48583614499876,0.032935471997916466,58.10592901599739,[-0.1388888888888889],[-0.23555555555555555],[1],[0],[0],[2.6364990469992335],['target'],401422,001,2024-10-10_13h22.05.025,VISUALSEARCH,2024.2.1,None,2024-10-10 13h22.25.709866 +0530,
34,0,34,[-0.30333333333333334],[0.3233333333333333],[1],[0],[0],[1.2435490690004372],['target'],34,0,34,0,58.133253546999185,,5,58.12221819399929,58.133253546999185,58.133253546999185,0.01611921500079916,59.36642771499828,[-0.30333333333333334],[0.3233333333333333],[1],[0],[0],[1.2435490690004372],['target'],401422,001,2024-10-10_13h22.05.025,VISUALSEARCH,2024.2.1,None,2024-10-10 13h22.25.709866 +0530,
35,0,35,[-0.25222222222222224],[-0.06222222222222222],[1],[0],[0],[1.285359019999305],['target'],35,0,35,0,59.39644893199875,,5,59.3845589579978,59.39644893199875,59.39644893199875,0.017993378998653498,60.670363213997916,[-0.25222222222222224],[-0.06222222222222222],[1],[0],[0],[1.285359019999305],['target'],401422,001,2024-10-10_13h22.05.025,VISUALSEARCH,2024.2.1,None,2024-10-10 13h22.25.709866 +0530,
36,0,36,[-0.28888888888888886],[-0.18666666666666668],[1],[0],[0],[1.537590118998196],['target'],36,0,36,0,60.71315221599798,,10,60.698049935999734,60.71315221599798,60.71315221599798,0.027530553998076357,62.2361616149974,[-0.28888888888888886],[-0.18666666666666668],[1],[0],[0],[1.537590118998196],['target'],401422,001,2024-10-10_13h22.05.025,VISUALSEARCH,2024.2.1,None,2024-10-10 13h22.25.709866 +0530,
37,0,37,[0.2577777777777778],[0.2911111111111111],[1],[0],[0],[1.3012627440002689],['target'],37,0,37,0,62.280883799998264,,10,62.26481912599775,62.280883799998264,62.280883799998264,0.028497068997239694,63.566494185997726,[0.2577777777777778],[0.2911111111111111],[1],[0],[0],[1.3012627440002689],['target'],401422,001,2024-10-10_13h22.05.025,VISUALSEARCH,2024.2.1,None,2024-10-10 13h22.25.709866 +0530,
38,0,38,[0.38333333333333336],[0.03],[1],[0],[0],[1.4187596830015536],['target'],38,0,38,0,63.59636152099847,,5,63.58401333099755,63.59636152099847,63.59636152099847,0.01729924299797858,65.00336657299704,[0.38333333333333336],[0.03],[1],[0],[0],[1.4187596830015536],['target'],401422,001,2024-10-10_13h22.05.025,VISUALSEARCH,2024.2.1,None,2024-10-10 13h22.25.709866 +0530,
39,0,39,[-0.22666666666666666],[-0.0811111111111111],[1],[0],[0],[1.3476721010010806],['target'],39,0,39,0,65.03665241199997,,5,65.02267739499803,65.03665241199997,65.03665241199997,0.01914897800088511,66.37082072799967,[-0.22666666666666666],[-0.0811111111111111],[1],[0],[0],[1.3476721010010806],['target'],401422,001,2024-10-10_13h22.05.025,VISUALSEARCH,2024.2.1,None,2024-10-10 13h22.25.709866 +0530,
40,0,40,[0.4033333333333333],[-0.13666666666666666],[1],[0],[0],[1.3671123889980663],['target'],40,0,40,0,66.39787566599989,,5,66.38573700999768,66.39787566599989,66.39787566599989,0.01478089599913801,67.75330104099703,[0.4033333333333333],[-0.13666666666666666],[1],[0],[0],[1.3671123889980663],['target'],401422,001,2024-10-10_13h22.05.025,VISUALSEARCH,2024.2.1,None,2024-10-10 13h22.25.709866 +0530,
41,0,41,[0.06111111111111111],[-0.28555555555555556],[1],[0],[0],[1.6942638479995367],['target'],41,0,41,0,67.78118042499773,,5,67.76988733399776,67.78118042499773,67.78118042499773,0.016454645003250334,69.46510676899925,[0.06111111111111111],[-0.28555555555555556],[1],[0],[0],[1.6942638479995367],['target'],401422,001,2024-10-10_13h22.05.025,VISUALSEARCH,2024.2.1,None,2024-10-10 13h22.25.709866 +0530,
42,0,42,[0.2311111111111111],[-0.11444444444444445],[1],[0],[0],[1.4403388049977366],['target'],42,0,42,0,69.51518079199741,,10,69.49809993999952,69.51518079199741,69.51518079199741,0.03278050399967469,70.93888062299811,[0.2311111111111111],[-0.11444444444444445],[1],[0],[0],[1.4403388049977366],['target'],401422,001,2024-10-10_13h22.05.025,VISUALSEARCH,2024.2.1,None,2024-10-10 13h22.25.709866 +0530,
43,0,43,[0.0011111111111111111],[-0.4],[1],[0],[0],[1.8801758160007012],['target'],43,0,43,0,70.98244263000015,,10,70.96693928499735,70.98244263000015,70.98244263000015,0.027897669999219943,72.84775901499961,[0.0011111111111111111],[-0.4],[1],[0],[0],[1.8801758160007012],['target'],401422,001,2024-10-10_13h22.05.025,VISUALSEARCH,2024.2.1,None,2024-10-10 13h22.25.709866 +0530,
44,0,44,[0.2966666666666667],[-0.19333333333333333],[1],[0],[0],[1.2565237849994446],['target'],44,0,44,0,72.9037411859972,,10,72.88249582400022,72.9037411859972,72.9037411859972,0.034552029999758815,74.13946120299806,[0.2966666666666667],[-0.19333333333333333],[1],[0],[0],[1.2565237849994446],['target'],401422,001,2024-10-10_13h22.05.025,VISUALSEARCH,2024.2.1,None,2024-10-10 13h22.25.709866 +0530,
45,0,45,[-0.39],[0.3522222222222222],[1],[0],[0],[1.9480652700003702],['target'],45,0,45,0,74.16725485999996,,5,74.15424696699847,74.16725485999996,74.16725485999996,0.014597212000808213,76.10302257399962,[-0.39],[0.3522222222222222],[1],[0],[0],[1.9480652700003702],['target'],401422,001,2024-10-10_13h22.05.025,VISUALSEARCH,2024.2.1,None,2024-10-10 13h22.25.709866 +0530,
46,0,46,[0.26666666666666666],[-0.0077777777777777776],[1],[0],[0],[1.253581316999771],['target'],46,0,46,0,76.13217668299694,,5,76.12085142899741,76.13217668299694,76.13217668299694,0.01761648100000457,77.37498593000055,[0.26666666666666666],[-0.0077777777777777776],[1],[0],[0],[1.253581316999771],['target'],401422,001,2024-10-10_13h22.05.025,VISUALSEARCH,2024.2.1,None,2024-10-10 13h22.25.709866 +0530,
47,0,47,[-0.14777777777777779],[-0.3333333333333333],[1],[0],[0],[1.5173153950017877],['target'],47,0,47,0,77.40653700300027,,5,77.3930009129981,77.40653700300027,77.40653700300027,0.01786122399789747,78.91087706299732,[-0.14777777777777779],[-0.3333333333333333],[1],[0],[0],[1.5173153950017877],['target'],401422,001,2024-10-10_13h22.05.025,VISUALSEARCH,2024.2.1,None,2024-10-10 13h22.25.709866 +0530,
48,0,48,[0.27555555555555555],[0.3055555555555556],[1],[0],[0],[1.3514146419984172],['target'],48,0,48,0,78.95498528499957,,10,78.93914664999829,78.95498528499957,78.95498528499957,0.028119460999732837,80.29101880799863,[0.27555555555555555],[0.3055555555555556],[1],[0],[0],[1.3514146419984172],['target'],401422,001,2024-10-10_13h22.05.025,VISUALSEARCH,2024.2.1,None,2024-10-10 13h22.25.709866 +0530,
49,0,49,[0.14888888888888888],[-0.4622222222222222],[1],[0],[0],[1.796098159000394],['target'],49,0,49,0,80.32135172799826,,5,80.30797937699754,80.32135172799826,80.32135172799826,0.01674531399839907,82.10453607700038,[0.14888888888888888],[-0.4622222222222222],[1],[0],[0],[1.796098159000394],['target'],401422,001,2024-10-10_13h22.05.025,VISUALSEARCH,2024.2.1,None,2024-10-10 13h22.25.709866 +0530,
50,0,50,[0.3411111111111111],[0.012222222222222223],[1],[0],[0],[1.4147934109969356],['target'],50,0,50,0,82.14906210999834,,10,82.13285706899842,82.14906210999834,82.14906210999834,0.028174240000225836,83.54820758799906,[0.3411111111111111],[0.012222222222222223],[1],[0],[0],[1.4147934109969356],['target'],401422,001,2024-10-10_13h22.05.025,VISUALSEARCH,2024.2.1,None,2024-10-10 13h22.25.709866 +0530,
51,0,51,[0.36444444444444446],[-0.13555555555555557],[1],[0],[0],[1.433932112002367],['target'],51,0,51,0,83.59447645299952,,10,83.57591454799694,83.59447645299952,83.59447645299952,0.02752412299741991,85.0103101019995,[0.36444444444444446],[-0.13555555555555557],[1],[0],[0],[1.433932112002367],['target'],401422,001,2024-10-10_13h22.05.025,VISUALSEARCH,2024.2.1,None,2024-10-10 13h22.25.709866 +0530,
52,0,52,[0.21777777777777776],[-0.2677777777777778],[1],[0],[0],[1.1941024250008923],['target'],52,0,52,0,85.04019735099791,,5,85.02774045799742,85.04019735099791,85.04019735099791,0.01724853400082793,86.22232790499766,[0.21777777777777776],[-0.2677777777777778],[1],[0],[0],[1.1941024250008923],['target'],401422,001,2024-10-10_13h22.05.025,VISUALSEARCH,2024.2.1,None,2024-10-10 13h22.25.709866 +0530,
53,0,53,[-0.3011111111111111],[-0.2733333333333333],[1],[0],[0],[1.6471991020007408],['target'],53,0,53,0,86.26866532999702,,10,86.25336455399884,86.26866532999702,86.26866532999702,0.030841858002531808,87.90109506599765,[-0.3011111111111111],[-0.2733333333333333],[1],[0],[0],[1.6471991020007408],['target'],401422,001,2024-10-10_13h22.05.025,VISUALSEARCH,2024.2.1,None,2024-10-10 13h22.25.709866 +0530,
54,0,54,[0.07],[0.4822222222222222],[1],[0],[0],[2.531640437999158],['target'],54,0,54,0,87.95028898499731,,10,87.93267781599934,87.95028898499731,87.95028898499731,0.031417907997820294,90.46499799799858,[0.07],[0.4822222222222222],[1],[0],[0],[2.531640437999158],['target'],401422,001,2024-10-10_13h22.05.025,VISUALSEARCH,2024.2.1,None,2024-10-10 13h22.25.709866 +0530,
55,0,55,[-0.4866666666666667],[0.17444444444444446],[1],[0],[0],[1.258934595000028],['target'],55,0,55,0,90.4945091749978,,5,90.48131021699737,90.4945091749978,90.4945091749978,0.016098421001515817,91.74082850599734,[-0.4866666666666667],[0.17444444444444446],[1],[0],[0],[1.258934595000028],['target'],401422,001,2024-10-10_13h22.05.025,VISUALSEARCH,2024.2.1,None,2024-10-10 13h22.25.709866 +0530,
56,0,56,[-0.4411111111111111],[0.4688888888888889],[1],[0],[0],[3.175019369002257],['target'],56,0,56,0,91.78780223599824,,10,91.77219998600049,91.78780223599824,91.78780223599824,0.031195548999676248,94.94796674999816,[-0.4411111111111111],[0.4688888888888889],[1],[0],[0],[3.175019369002257],['target'],401422,001,2024-10-10_13h22.05.025,VISUALSEARCH,2024.2.1,None,2024-10-10 13h22.25.709866 +0530,
57,0,57,[0.22111111111111112],[0.40555555555555556],[1],[0],[0],[1.5640788359996805],['target'],57,0,57,0,94.99174976399809,,10,94.97580240000025,94.99174976399809,94.99174976399809,0.02762160099882749,96.54037087699908,[0.22111111111111112],[0.40555555555555556],[1],[0],[0],[1.5640788359996805],['target'],401422,001,2024-10-10_13h22.05.025,VISUALSEARCH,2024.2.1,None,2024-10-10 13h22.25.709866 +0530,
58,0,58,[-0.04555555555555556],[0.21666666666666667],[1],[0],[0],[1.4054767559973698],['target'],58,0,58,0,96.56714079799713,,5,96.55624850099775,96.56714079799713,96.56714079799713,0.01567172599970945,97.96233389699773,[-0.04555555555555556],[0.21666666666666667],[1],[0],[0],[1.4054767559973698],['target'],401422,001,2024-10-10_13h22.05.025,VISUALSEARCH,2024.2.1,None,2024-10-10 13h22.25.709866 +0530,
59,0,59,[0.0011111111111111111],[-0.4666666666666667],[1],[0],[0],[2.835964801000955],['target'],59,0,59,0,98.00602266399801,,10,97.99057412500042,98.00602266399801,98.00602266399801,0.028054163998604054,100.82706216699808,[0.0011111111111111111],[-0.4666666666666667],[1],[0],[0],[2.835964801000955],['target'],401422,001,2024-10-10_13h22.05.025,VISUALSEARCH,2024.2.1,None,2024-10-10 13h22.25.709866 +0530,
60,0,60,[-0.3611111111111111],[-0.2111111111111111],[1],[0],[0],[1.782298959002219],['target'],60,0,60,0,100.87381280599948,,10,100.85667104499953,100.87381280599948,100.87381280599948,0.029441188999044243,102.63938202799909,[-0.3611111111111111],[-0.2111111111111111],[1],[0],[0],[1.782298959002219],['target'],401422,001,2024-10-10_13h22.05.025,VISUALSEARCH,2024.2.1,None,2024-10-10 13h22.25.709866 +0530,
61,0,61,[-0.04],[-0.42444444444444446],[1],[0],[0],[1.5590375599967956],['target'],61,0,61,0,102.68552255999748,,10,102.66942211899732,102.68552255999748,102.68552255999748,0.029853324998839526,104.22901626999737,[-0.04],[-0.42444444444444446],[1],[0],[0],[1.5590375599967956],['target'],401422,001,2024-10-10_13h22.05.025,VISUALSEARCH,2024.2.1,None,2024-10-10 13h22.25.709866 +0530,
62,0,62,[-0.11777777777777777],[-0.15222222222222223],[1],[0],[0],[3.114890571003343],['target'],62,0,62,0,104.27414809999755,,10,104.2577506719972,104.27414809999755,104.27414809999755,0.028510847998404643,107.37328198599789,[-0.11777777777777777],[-0.15222222222222223],[1],[0],[0],[3.114890571003343],['target'],401422,001,2024-10-10_13h22.05.025,VISUALSEARCH,2024.2.1,None,2024-10-10 13h22.25.709866 +0530,
63,0,63,[-0.38222222222222224],[0.13444444444444445],[1],[0],[0],[1.272826262000308],['target'],63,0,63,0,107.40312710899889,,5,107.39067748299931,107.40312710899889,107.40312710899889,0.017148429000371834,108.66421393400014,[-0.38222222222222224],[0.13444444444444445],[1],[0],[0],[1.272826262000308],['target'],401422,001,2024-10-10_13h22.05.025,VISUALSEARCH,2024.2.1,None,2024-10-10 13h22.25.709866 +0530,
64,0,64,[0.3055555555555556],[0.008888888888888889],[1],[0],[0],[1.2735435190006683],['target'],64,0,64,0,108.71036739599731,,10,108.69405441199706,108.71036739599731,108.71036739599731,0.029620584999065613,109.96810802699838,[0.3055555555555556],[0.008888888888888889],[1],[0],[0],[1.2735435190006683],['target'],401422,001,2024-10-10_13h22.05.025,VISUALSEARCH,2024.2.1,None,2024-10-10 13h22.25.709866 +0530,
65,0,65,[0.0033333333333333335],[-0.29],[1],[0],[0],[1.163321932002873],['target'],65,0,65,0,110.01525110699731,,10,109.99771839099776,110.01525110699731,110.01525110699731,0.029370919000939466,111.1615195489976,[0.0033333333333333335],[-0.29],[1],[0],[0],[1.163321932002873],['target'],401422,001,2024-10-10_13h22.05.025,VISUALSEARCH,2024.2.1,None,2024-10-10 13h22.25.709866 +0530,
66,0,66,[0.2866666666666667],[-0.20444444444444446],[1],[0],[0],[1.2600620920020447],['target'],66,0,66,0,111.18770641099763,,5,111.17622985900016,111.18770641099763,111.18770641099763,0.014514538001094479,112.43689333099974,[0.2866666666666667],[-0.20444444444444446],[1],[0],[0],[1.2600620920020447],['target'],401422,001,2024-10-10_13h22.05.025,VISUALSEARCH,2024.2.1,None,2024-10-10 13h22.25.709866 +0530,
67,0,67,[0.3977777777777778],[0.47],[1],[0],[0],[1.59623806899981],['target'],67,0,67,0,112.46738675899906,,5,112.45459610000034,112.46738675899906,112.46738675899906,0.017532347999804188,114.05141834700044,[0.3977777777777778],[0.47],[1],[0],[0],[1.59623806899981],['target'],401422,001,2024-10-10_13h22.05.025,VISUALSEARCH,2024.2.1,None,2024-10-10 13h22.25.709866 +0530,
68,0,68,[-0.18222222222222223],[0.41555555555555557],[1],[0],[0],[2.5625497330001963],['target'],68,0,68,0,114.10101225999824,,10,114.08285067899851,114.10101225999824,114.10101225999824,0.031210559001920046,116.64589182999771,[-0.18222222222222223],[0.41555555555555557],[1],[0],[0],[2.5625497330001963],['target'],401422,001,2024-10-10_13h22.05.025,VISUALSEARCH,2024.2.1,None,2024-10-10 13h22.25.709866 +0530,
69,0,69,[-0.042222222222222223],[0.09777777777777778],[1],[0],[0],[1.472581927999272],['target'],69,0,69,0,116.68972075199781,,10,116.67379491799875,116.68972075199781,116.68972075199781,0.02764456499789958,118.14726828699713,[-0.042222222222222223],[0.09777777777777778],[1],[0],[0],[1.472581927999272],['target'],401422,001,2024-10-10_13h22.05.025,VISUALSEARCH,2024.2.1,None,2024-10-10 13h22.25.709866 +0530,
70,0,70,[-0.044444444444444446],[0.44666666666666666],[1],[0],[0],[1.6485448679995898],['target'],70,0,70,0,118.19085925499894,,10,118.17521620999833,118.19085925499894,118.19085925499894,0.027617649000603706,119.82426764499905,[-0.044444444444444446],[0.44666666666666666],[1],[0],[0],[1.6485448679995898],['target'],401422,001,2024-10-10_13h22.05.025,VISUALSEARCH,2024.2.1,None,2024-10-10 13h22.25.709866 +0530,
71,0,71,[-0.4888888888888889],[0.13666666666666666],[1],[0],[0],[1.858437763999973],['target'],71,0,71,0,119.8693959259981,,10,119.85272726199764,119.8693959259981,119.8693959259981,0.028247559999726946,121.71182786999998,[-0.4888888888888889],[0.13666666666666666],[1],[0],[0],[1.858437763999973],['target'],401422,001,2024-10-10_13h22.05.025,VISUALSEARCH,2024.2.1,None,2024-10-10 13h22.25.709866 +0530,
72,0,72,[-0.05555555555555555],[0.39666666666666667],[1],[0],[0],[1.378653938001662],['target'],72,0,72,0,121.73847803099852,,5,121.72684814400054,121.73847803099852,121.73847803099852,0.014798437001445564,123.10621303600055,[-0.05555555555555555],[0.39666666666666667],[1],[0],[0],[1.378653938001662],['target'],401422,001,2024-10-10_13h22.05.025,VISUALSEARCH,2024.2.1,None,2024-10-10 13h22.25.709866 +0530,
73,0,73,[0.2611111111111111],[0.2777777777777778],[1],[0],[0],[2.7513704269986192],['target'],73,0,73,0,123.15316651099783,,10,123.137577305999,123.15316651099783,123.15316651099783,0.031156590001046425,125.88940526299848,[0.2611111111111111],[0.2777777777777778],[1],[0],[0],[2.7513704269986192],['target'],401422,001,2024-10-10_13h22.05.025,VISUALSEARCH,2024.2.1,None,2024-10-10 13h22.25.709866 +0530,
74,0,74,[-0.4533333333333333],[-0.3622222222222222],[1],[0],[0],[2.1297163460003503],['target'],74,0,74,0,125.91862589499942,,5,125.90669891599828,125.91862589499942,125.91862589499942,0.01707075399826863,128.03700704099901,[-0.4533333333333333],[-0.3622222222222222],[1],[0],[0],[2.1297163460003503],['target'],401422,001,2024-10-10_13h22.05.025,VISUALSEARCH,2024.2.1,None,2024-10-10 13h22.25.709866 +0530,
75,0,75,[0.058888888888888886],[0.2788888888888889],[1],[0],[0],[2.1120321260023047],['target'],75,0,75,0,128.08358785999735,,10,128.0677673609971,128.08358785999735,128.08358785999735,0.030547372000000905,130.1807360669991,[0.058888888888888886],[0.2788888888888889],[1],[0],[0],[2.1120321260023047],['target'],401422,001,2024-10-10_13h22.05.025,VISUALSEARCH,2024.2.1,None,2024-10-10 13h22.25.709866 +0530,
76,0,76,[-0.43777777777777777],[-0.16333333333333333],[1],[0],[0],[1.4354276090016356],['target'],76,0,76,0,130.22606655100026,,10,130.20871098600037,130.22606655100026,130.22606655100026,0.027756699000747176,131.64461973799916,[-0.43777777777777777],[-0.16333333333333333],[1],[0],[0],[1.4354276090016356],['target'],401422,001,2024-10-10_13h22.05.025,VISUALSEARCH,2024.2.1,None,2024-10-10 13h22.25.709866 +0530,
77,0,77,[0.42333333333333334],[-0.06333333333333334],[1],[0],[0],[1.9071552390014403],['target'],77,0,77,0,131.68886971399843,,10,131.67313778199969,131.68886971399843,131.68886971399843,0.028340266999293817,133.58108611599891,[0.42333333333333334],[-0.06333333333333334],[1],[0],[0],[1.9071552390014403],['target'],401422,001,2024-10-10_13h22.05.025,VISUALSEARCH,2024.2.1,None,2024-10-10 13h22.25.709866 +0530,
78,0,78,[-0.28888888888888886],[0.25],[1],[0],[0],[1.4779893679988163],['target'],78,0,78,0,133.62536509499841,,10,133.60939234599937,133.62536509499841,133.62536509499841,0.028070864002074813,135.0877605709975,[-0.28888888888888886],[0.25],[1],[0],[0],[1.4779893679988163],['target'],401422,001,2024-10-10_13h22.05.025,VISUALSEARCH,2024.2.1,None,2024-10-10 13h22.25.709866 +0530,
79,0,79,[-0.4488888888888889],[0.42777777777777776],[1],[0],[0],[1.4045888940017903],['target'],79,0,79,0,135.13156861199968,,10,135.11531188299705,135.13156861199968,135.13156861199968,0.027395899000111967,136.52039278299708,[-0.4488888888888889],[0.42777777777777776],[1],[0],[0],[1.4045888940017903],['target'],401422,001,2024-10-10_13h22.05.025,VISUALSEARCH,2024.2.1,None,2024-10-10 13h22.25.709866 +0530,
80,0,80,[0.2],[-0.43444444444444447],[1],[0],[0],[2.5562661920012033],['target'],80,0,80,0,136.5650554169988,,10,136.54933093,136.5650554169988,136.5650554169988,0.02871947699895827,139.1060089499988,[0.2],[-0.43444444444444447],[1],[0],[0],[2.5562661920012033],['target'],401422,001,2024-10-10_13h22.05.025,VISUALSEARCH,2024.2.1,None,2024-10-10 13h22.25.709866 +0530,
81,0,81,[-0.3055555555555556],[0.38333333333333336],[1],[0],[0],[1.3708444660005625],['target'],81,0,81,0,139.15476685499743,,10,139.13517296499776,139.15476685499743,139.15476685499743,0.02899070599960396,140.50651375099915,[-0.3055555555555556],[0.38333333333333336],[1],[0],[0],[1.3708444660005625],['target'],401422,001,2024-10-10_13h22.05.025,VISUALSEARCH,2024.2.1,None,2024-10-10 13h22.25.709866 +0530,
82,0,82,[-0.016666666666666666],[0.20222222222222222],[1],[0],[0],[1.1507072890017298],['target'],82,0,82,0,140.55112680599996,,10,140.53497791299742,140.55112680599996,140.55112680599996,0.028252082000108203,141.68655373199726,[-0.016666666666666666],[0.20222222222222222],[1],[0],[0],[1.1507072890017298],['target'],401422,001,2024-10-10_13h22.05.025,VISUALSEARCH,2024.2.1,None,2024-10-10 13h22.25.709866 +0530,
83,0,83,[0.46555555555555556],[0.4688888888888889],[1],[0],[0],[2.1287133789992367],['target'],83,0,83,0,141.71936228999766,,5,141.70696555500035,141.71936228999766,141.71936228999766,0.020099471999856178,143.83630433099825,[0.46555555555555556],[0.4688888888888889],[1],[0],[0],[2.1287133789992367],['target'],401422,001,2024-10-10_13h22.05.025,VISUALSEARCH,2024.2.1,None,2024-10-10 13h22.25.709866 +0530,
84,0,84,[-0.015555555555555555],[-0.06777777777777778],[1],[0],[0],[1.7628573589972802],['target'],84,0,84,0,143.8688348830001,,5,143.85692962499888,143.8688348830001,143.8688348830001,0.02037212799768895,145.62026059199707,[-0.015555555555555555],[-0.06777777777777778],[1],[0],[0],[1.7628573589972802],['target'],401422,001,2024-10-10_13h22.05.025,VISUALSEARCH,2024.2.1,None,2024-10-10 13h22.25.709866 +0530,
85,0,85,[0.011111111111111112],[-0.06555555555555556],[1],[0],[0],[1.199888244002068],['target'],85,0,85,0,145.64632387799793,,5,145.635014599,145.64632387799793,145.64632387799793,0.014611049999075476,146.83543011299844,[0.011111111111111112],[-0.06555555555555556],[1],[0],[0],[1.199888244002068],['target'],401422,001,2024-10-10_13h22.05.025,VISUALSEARCH,2024.2.1,None,2024-10-10 13h22.25.709866 +0530,
86,0,86,[0.4444444444444444],[-0.4166666666666667],[1],[0],[0],[2.0057417690004513],['target'],86,0,86,0,146.88197318499806,,10,146.8663638629987,146.88197318499806,146.88197318499806,0.030745131000003312,148.87264009999853,[0.4444444444444444],[-0.4166666666666667],[1],[0],[0],[2.0057417690004513],['target'],401422,001,2024-10-10_13h22.05.025,VISUALSEARCH,2024.2.1,None,2024-10-10 13h22.25.709866 +0530,
87,0,87,[-0.06],[-0.12111111111111111],[1],[0],[0],[1.4654554810003901],['target'],87,0,87,0,148.90165684000021,,5,148.88900599299814,148.90165684000021,148.90165684000021,0.016116116999910446,150.35502398699828,[-0.06],[-0.12111111111111111],[1],[0],[0],[1.4654554810003901],['target'],401422,001,2024-10-10_13h22.05.025,VISUALSEARCH,2024.2.1,None,2024-10-10 13h22.25.709866 +0530,
88,0,88,[-0.4588888888888889],[-0.2633333333333333],[1],[0],[0],[1.6140620980004314],['target'],88,0,88,0,150.38501926800018,,5,150.37270007299958,150.38501926800018,150.38501926800018,0.017469414000515826,151.9875216170003,[-0.4588888888888889],[-0.2633333333333333],[1],[0],[0],[1.6140620980004314],['target'],401422,001,2024-10-10_13h22.05.025,VISUALSEARCH,2024.2.1,None,2024-10-10 13h22.25.709866 +0530,
89,0,89,[-0.042222222222222223],[0.42333333333333334],[1],[0],[0],[1.5854220139990503],['target'],89,0,89,0,152.03979005499787,,10,152.02169392299766,152.03979005499787,152.03979005499787,0.03389795399925788,153.60784454299937,[-0.042222222222222223],[0.42333333333333334],[1],[0],[0],[1.5854220139990503],['target'],401422,001,2024-10-10_13h22.05.025,VISUALSEARCH,2024.2.1,None,2024-10-10 13h22.25.709866 +0530,
90,0,90,[-0.4211111111111111],[0.3055555555555556],[1],[0],[0],[1.2953727909989539],['target'],90,0,90,0,153.66499901099814,,10,153.64272328600055,153.66499901099814,153.66499901099814,0.03468156799863209,154.9384756010004,[-0.4211111111111111],[0.3055555555555556],[1],[0],[0],[1.2953727909989539],['target'],401422,001,2024-10-10_13h22.05.025,VISUALSEARCH,2024.2.1,None,2024-10-10 13h22.25.709866 +0530,
91,0,91,[0.41555555555555557],[0.46555555555555556],[1],[0],[0],[3.1028525459987577],['target'],91,0,91,0,154.9669183119986,,5,154.9535892319982,154.9669183119986,154.9669183119986,0.01496155599670601,158.05703863999952,[0.41555555555555557],[0.46555555555555556],[1],[0],[0],[3.1028525459987577],['target'],401422,001,2024-10-10_13h22.05.025,VISUALSEARCH,2024.2.1,None,2024-10-10 13h22.25.709866 +0530,
92,0,92,[0.21555555555555556],[-0.2911111111111111],[1],[0],[0],[2.0073659760018927],['target'],92,0,92,0,158.1049398599971,,10,158.08912391400008,158.1049398599971,158.1049398599971,0.03187508300106856,160.09710302500025,[0.21555555555555556],[-0.2911111111111111],[1],[0],[0],[2.0073659760018927],['target'],401422,001,2024-10-10_13h22.05.025,VISUALSEARCH,2024.2.1,None,2024-10-10 13h22.25.709866 +0530,
93,0,93,[-0.31333333333333335],[0.17888888888888888],[1],[0],[0],[1.464415418999124],['target'],93,0,93,0,160.14077959399947,,10,160.12416042399855,160.14077959399947,160.14077959399947,0.026872703001572518,161.58912633,[-0.31333333333333335],[0.17888888888888888],[1],[0],[0],[1.464415418999124],['target'],401422,001,2024-10-10_13h22.05.025,VISUALSEARCH,2024.2.1,None,2024-10-10 13h22.25.709866 +0530,
94,0,94,[-0.3511111111111111],[0.22666666666666666],[1],[0],[0],[0.788266144998488],['target'],94,0,94,0,161.61806163599977,,5,161.6053230180005,161.61806163599977,161.61806163599977,0.01601301200207672,162.39416896200055,[-0.3511111111111111],[0.22666666666666666],[1],[0],[0],[0.788266144998488],['target'],401422,001,2024-10-10_13h22.05.025,VISUALSEARCH,2024.2.1,None,2024-10-10 13h22.25.709866 +0530,
95,0,95,[0.3422222222222222],[0.37444444444444447],[1],[0],[0],[1.4427671840021503],['target'],95,0,95,0,162.42357922500014,,5,162.41040455399707,162.42357922500014,162.42357922500014,0.016060379002738046,163.8538882899993,[0.3422222222222222],[0.37444444444444447],[1],[0],[0],[1.4427671840021503],['target'],401422,001,2024-10-10_13h22.05.025,VISUALSEARCH,2024.2.1,None,2024-10-10 13h22.25.709866 +0530,
96,0,96,[-0.11777777777777777],[0.29333333333333333],[1],[0],[0],[1.1978294500004267],['target'],96,0,96,0,163.88546334700004,,5,163.87292685099965,163.88546334700004,163.88546334700004,0.018829374999768334,165.07121461499992,[-0.11777777777777777],[0.29333333333333333],[1],[0],[0],[1.1978294500004267],['target'],401422,001,2024-10-10_13h22.05.025,VISUALSEARCH,2024.2.1,None,2024-10-10 13h22.25.709866 +0530,
97,0,97,[0.33555555555555555],[0.15333333333333332],[1],[0],[0],[1.2187944580000476],['target'],97,0,97,0,165.098650508,,5,165.08589164599834,165.098650508,165.098650508,0.014523890997224953,166.30514460199993,[0.33555555555555555],[0.15333333333333332],[1],[0],[0],[1.2187944580000476],['target'],401422,001,2024-10-10_13h22.05.025,VISUALSEARCH,2024.2.1,None,2024-10-10 13h22.25.709866 +0530,
98,0,98,[0.36666666666666664],[0.31222222222222223],[1],[0],[0],[1.131478764997155],['target'],98,0,98,0,166.33449452999776,,5,166.32147003099817,166.33449452999776,166.33449452999776,0.01615845500055002,167.4535951129983,[0.36666666666666664],[0.31222222222222223],[1],[0],[0],[1.131478764997155],['target'],401422,001,2024-10-10_13h22.05.025,VISUALSEARCH,2024.2.1,None,2024-10-10 13h22.25.709866 +0530,
99,0,99,[0.13333333333333333],[0.21444444444444444],[1],[0],[0],[2.317276863999723],['target'],99,0,99,0,167.49906245199963,,10,167.4827599019991,167.49906245199963,167.49906245199963,0.028854811000201153,169.8005579319979,[0.13333333333333333],[0.21444444444444444],[1],[0],[0],[2.317276863999723],['target'],401422,001,2024-10-10_13h22.05.025,VISUALSEARCH,2024.2.1,None,2024-10-10 13h22.25.709866 +0530,
100,0,100,[-0.42777777777777776],[0.3411111111111111],[1],[0],[0],[1.7079067650010984],['target'],100,0,100,0,169.8485130079971,,10,169.8298928740005,169.8485130079971,169.8485130079971,0.029077374998450978,171.53829004900035,[-0.42777777777777776],[0.3411111111111111],[1],[0],[0],[1.7079067650010984],['target'],401422,001,2024-10-10_13h22.05.025,VISUALSEARCH,2024.2.1,None,2024-10-10 13h22.25.709866 +0530,
101,0,101,[0.41888888888888887],[-0.22555555555555556],[1],[0],[0],[1.6344445300019288],['target'],101,0,101,0,171.56594974499967,,5,171.55418466699848,171.56594974499967,171.56594974499967,0.015715900997747667,173.1892606049987,[0.41888888888888887],[-0.22555555555555556],[1],[0],[0],[1.6344445300019288],['target'],401422,001,2024-10-10_13h22.05.025,VISUALSEARCH,2024.2.1,None,2024-10-10 13h22.25.709866 +0530,
102,0,102,[-0.17555555555555555],[0.2088888888888889],[1],[0],[0],[1.246874858999945],['target'],102,0,102,0,173.21701217299778,,5,173.20556151100027,173.21701217299778,173.21701217299778,0.016132345001096837,174.4533574149973,[-0.17555555555555555],[0.2088888888888889],[1],[0],[0],[1.246874858999945],['target'],401422,001,2024-10-10_13h22.05.025,VISUALSEARCH,2024.2.1,None,2024-10-10 13h22.25.709866 +0530,
103,0,103,[-0.07],[-0.35333333333333333],[1],[0],[0],[2.1977407230006065],['target'],103,0,103,0,174.50280559599923,,10,174.48665416699805,174.50280559599923,174.50280559599923,0.033029743000952294,176.68486338599905,[-0.07],[-0.35333333333333333],[1],[0],[0],[2.1977407230006065],['target'],401422,001,2024-10-10_13h22.05.025,VISUALSEARCH,2024.2.1,None,2024-10-10 13h22.25.709866 +0530,
104,0,104,[0.028888888888888888],[-0.14888888888888888],[1],[0],[0],[1.3588831719971495],['target'],104,0,104,0,176.72752731199944,,10,176.71066988099847,176.72752731199944,176.72752731199944,0.025646221001807135,178.07016180499704,[0.028888888888888888],[-0.14888888888888888],[1],[0],[0],[1.3588831719971495],['target'],401422,001,2024-10-10_13h22.05.025,VISUALSEARCH,2024.2.1,None,2024-10-10 13h22.25.709866 +0530,
105,0,105,[-0.13333333333333333],[-0.36],[1],[0],[0],[1.5542465969992918],['target'],105,0,105,0,178.0974199659977,,5,178.08574456099814,178.0974199659977,178.0974199659977,0.01536243999726139,179.6405376699986,[-0.13333333333333333],[-0.36],[1],[0],[0],[1.5542465969992918],['target'],401422,001,2024-10-10_13h22.05.025,VISUALSEARCH,2024.2.1,None,2024-10-10 13h22.25.709866 +0530,
106,0,106,[0.16111111111111112],[-0.3388888888888889],[1],[0],[0],[1.156347726999229],['target'],106,0,106,0,179.6859285699975,,10,179.67027197399875,179.6859285699975,179.6859285699975,0.029562978001195006,180.82728645599855,[0.16111111111111112],[-0.3388888888888889],[1],[0],[0],[1.156347726999229],['target'],401422,001,2024-10-10_13h22.05.025,VISUALSEARCH,2024.2.1,None,2024-10-10 13h22.25.709866 +0530,
107,0,107,[-0.4122222222222222],[-0.4311111111111111],[1],[0],[0],[1.7942861299998185],['target'],107,0,107,0,180.87290513900007,,10,180.85584897799708,180.87290513900007,180.87290513900007,0.028337980998912826,182.6505868489985,[-0.4122222222222222],[-0.4311111111111111],[1],[0],[0],[1.7942861299998185],['target'],401422,001,2024-10-10_13h22.05.025,VISUALSEARCH,2024.2.1,None,2024-10-10 13h22.25.709866 +0530,
108,0,108,[0.057777777777777775],[-0.4122222222222222],[1],[0],[0],[1.309021209999628],['target'],108,0,108,0,182.69618639399778,,10,182.67988553000032,182.69618639399778,182.69618639399778,0.029089210998790804,183.98948399899746,[0.057777777777777775],[-0.4122222222222222],[1],[0],[0],[1.309021209999628],['target'],401422,001,2024-10-10_13h22.05.025,VISUALSEARCH,2024.2.1,None,2024-10-10 13h22.25.709866 +0530,
109,0,109,[-0.41333333333333333],[0.06888888888888889],[1],[0],[0],[1.627500233000319],['target'],109,0,109,0,184.10511479499837,,10,184.08926593499928,184.10511479499837,184.10511479499837,0.09960466999837081,185.71728739699756,[-0.41333333333333333],[0.06888888888888889],[1],[0],[0],[1.627500233000319],['target'],401422,001,2024-10-10_13h22.05.025,VISUALSEARCH,2024.2.1,None,2024-10-10 13h22.25.709866 +0530,
110,0,110,[0.09555555555555556],[-0.12666666666666668],[1],[0],[0],[1.6402011230020435],['target'],110,0,110,0,185.765592284999,,10,185.7475194869985,185.765592284999,185.765592284999,0.02998342199862236,187.38817665399984,[0.09555555555555556],[-0.12666666666666668],[1],[0],[0],[1.6402011230020435],['target'],401422,001,2024-10-10_13h22.05.025,VISUALSEARCH,2024.2.1,None,2024-10-10 13h22.25.709866 +0530,
111,0,111,[-0.10666666666666667],[-0.2311111111111111],[1],[0],[0],[1.3809470909982338],['target'],111,0,111,0,187.43270674099767,,10,187.41641406499912,187.43270674099767,187.43270674099767,0.028061965000233613,188.79784006000045,[-0.10666666666666667],[-0.2311111111111111],[1],[0],[0],[1.3809470909982338],['target'],401422,001,2024-10-10_13h22.05.025,VISUALSEARCH,2024.2.1,None,2024-10-10 13h22.25.709866 +0530,
112,0,112,[0.01],[0.016666666666666666],[1],[0],[0],[2.862991632999183],['target'],112,0,112,0,188.8422910070003,,10,188.82598014099858,188.8422910070003,188.8422910070003,0.02793835800184752,191.68940092299817,[0.01],[0.016666666666666666],[1],[0],[0],[2.862991632999183],['target'],401422,001,2024-10-10_13h22.05.025,VISUALSEARCH,2024.2.1,None,2024-10-10 13h22.25.709866 +0530,
113,0,113,[0.3],[0.06222222222222222],[1],[0],[0],[1.3077572000001965],['target'],113,0,113,0,191.71611314300026,,5,191.70468849399913,191.71611314300026,191.71611314300026,0.015107056002307218,193.0131923359986,[0.3],[0.06222222222222222],[1],[0],[0],[1.3077572000001965],['target'],401422,001,2024-10-10_13h22.05.025,VISUALSEARCH,2024.2.1,None,2024-10-10 13h22.25.709866 +0530,
114,0,114,[-0.11555555555555555],[0.06888888888888889],[1],[0],[0],[1.4335480949994235],['target'],114,0,114,0,193.05905858599726,,10,193.04394816999775,193.05905858599726,193.05905858599726,0.030515691003529355,194.4779284489996,[-0.11555555555555555],[0.06888888888888889],[1],[0],[0],[1.4335480949994235],['target'],401422,001,2024-10-10_13h22.05.025,VISUALSEARCH,2024.2.1,None,2024-10-10 13h22.25.709866 +0530,
115,0,115,[-0.41555555555555557],[0.14777777777777779],[1],[0],[0],[1.1931890359992394],['target'],115,0,115,0,194.50465387499935,,5,194.49245852899912,194.50465387499935,194.50465387499935,0.014163852996716741,195.6865322429985,[-0.41555555555555557],[0.14777777777777779],[1],[0],[0],[1.1931890359992394],['target'],401422,001,2024-10-10_13h22.05.025,VISUALSEARCH,2024.2.1,None,2024-10-10 13h22.25.709866 +0530,
116,0,116,[0.23666666666666666],[0.05],[1],[0],[0],[1.2213364880008157],['target'],116,0,116,0,195.73973233799916,,10,195.72169614899758,195.73973233799916,195.73973233799916,0.03489941700172494,196.94383914900027,[0.23666666666666666],[0.05],[1],[0],[0],[1.2213364880008157],['target'],401422,001,2024-10-10_13h22.05.025,VISUALSEARCH,2024.2.1,None,2024-10-10 13h22.25.709866 +0530,
117,0,117,[0.16111111111111112],[-0.4533333333333333],[1],[0],[0],[1.6903259150021768],['target'],117,0,117,0,196.97321445099806,,5,196.9619558819977,196.97321445099806,196.97321445099806,0.0177513659982651,198.6528761519985,[0.16111111111111112],[-0.4533333333333333],[1],[0],[0],[1.6903259150021768],['target'],401422,001,2024-10-10_13h22.05.025,VISUALSEARCH,2024.2.1,None,2024-10-10 13h22.25.709866 +0530,
118,0,118,[-0.2911111111111111],[-0.035555555555555556],[1],[0],[0],[1.3388190559999202],['target'],118,0,118,0,198.6850854330005,,5,198.67336728699956,198.6850854330005,198.6850854330005,0.020215919001202565,200.0128008339998,[-0.2911111111111111],[-0.035555555555555556],[1],[0],[0],[1.3388190559999202],['target'],401422,001,2024-10-10_13h22.05.025,VISUALSEARCH,2024.2.1,None,2024-10-10 13h22.25.709866 +0530,
119,0,119,[-0.20444444444444446],[-0.3477777777777778],[1],[0],[0],[1.498500272999081],['target'],119,0,119,0,200.05582748499728,,10,200.0395500329978,200.05582748499728,200.05582748499728,0.026589447999867843,201.53856556699975,[-0.20444444444444446],[-0.3477777777777778],[1],[0],[0],[1.498500272999081],['target'],401422,001,2024-10-10_13h22.05.025,VISUALSEARCH,2024.2.1,None,2024-10-10 13h22.25.709866 +0530,
120,0,120,[-0.03333333333333333],[-0.10555555555555556],[1],[0],[0],[1.4574577159983164],['target'],120,0,120,0,201.56768769100017,,5,201.55469207900023,201.56768769100017,201.56768769100017,0.015935953000735026,203.01283669499753,[-0.03333333333333333],[-0.10555555555555556],[1],[0],[0],[1.4574577159983164],['target'],401422,001,2024-10-10_13h22.05.025,VISUALSEARCH,2024.2.1,None,2024-10-10 13h22.25.709866 +0530,
121,0,121,[-0.18555555555555556],[0.18555555555555556],[1],[0],[0],[1.1238183249988651],['target'],121,0,121,0,203.04068876599922,,5,203.02905475700027,203.04068876599922,203.04068876599922,0.01601603200106183,204.15332368999952,[-0.18555555555555556],[0.18555555555555556],[1],[0],[0],[1.1238183249988651],['target'],401422,001,2024-10-10_13h22.05.025,VISUALSEARCH,2024.2.1,None,2024-10-10 13h22.25.709866 +0530,
122,0,122,[-0.36],[0.15888888888888889],[1],[0],[0],[1.1830598569977155],['target'],122,0,122,0,204.1808020569988,,5,204.16894179299925,204.1808020569988,204.1808020569988,0.015492515998630552,205.35261603599793,[-0.36],[0.15888888888888889],[1],[0],[0],[1.1830598569977155],['target'],401422,001,2024-10-10_13h22.05.025,VISUALSEARCH,2024.2.1,None,2024-10-10 13h22.25.709866 +0530,
123,0,123,[0.3488888888888889],[-0.29777777777777775],[1],[0],[0],[1.4698784819993307],['target'],123,0,123,0,205.40269727699706,,10,205.38464415099952,205.40269727699706,205.40269727699706,0.03177869799765176,206.8549909229987,[0.3488888888888889],[-0.29777777777777775],[1],[0],[0],[1.4698784819993307],['target'],401422,001,2024-10-10_13h22.05.025,VISUALSEARCH,2024.2.1,None,2024-10-10 13h22.25.709866 +0530,
124,0,124,[-0.016666666666666666],[0.06666666666666667],[1],[0],[0],[2.5770553879992804],['target'],124,0,124,0,206.9001320239986,,10,206.88396136499796,206.9001320239986,206.9001320239986,0.028792876000807155,209.46159980599987,[-0.016666666666666666],[0.06666666666666667],[1],[0],[0],[2.5770553879992804],['target'],401422,001,2024-10-10_13h22.05.025,VISUALSEARCH,2024.2.1,None,2024-10-10 13h22.25.709866 +0530,
125,0,125,[0.30777777777777776],[-0.3011111111111111],[1],[0],[0],[1.4579266569999163],['target'],125,0,125,0,209.4869839999992,,5,209.4758339919972,209.4869839999992,209.4869839999992,0.013983552998979576,210.934588590997,[0.30777777777777776],[-0.3011111111111111],[1],[0],[0],[1.4579266569999163],['target'],401422,001,2024-10-10_13h22.05.025,VISUALSEARCH,2024.2.1,None,2024-10-10 13h22.25.709866 +0530,
126,0,126,[-0.44],[-0.03],[1],[0],[0],[1.7615998809997109],['target'],126,0,126,0,210.9810172619982,,10,210.96529983599976,210.9810172619982,210.9810172619982,0.030462681999779306,212.72732332699889,[-0.44],[-0.03],[1],[0],[0],[1.7615998809997109],['target'],401422,001,2024-10-10_13h22.05.025,VISUALSEARCH,2024.2.1,None,2024-10-10 13h22.25.709866 +0530,
127,0,127,[-0.17333333333333334],[0.05],[1],[0],[0],[1.9520641710005293],['target'],127,0,127,0,212.77098187199954,,10,212.7545018460005,212.77098187199954,212.77098187199954,0.02698901900294004,214.70713838200027,[-0.17333333333333334],[0.05],[1],[0],[0],[1.9520641710005293],['target'],401422,001,2024-10-10_13h22.05.025,VISUALSEARCH,2024.2.1,None,2024-10-10 13h22.25.709866 +0530,
128,0,128,[-0.45222222222222225],[0.37222222222222223],[1],[0],[0],[1.8990371899999445],['target'],128,0,128,0,214.73445467000056,,5,214.72271840999747,214.73445467000056,214.73445467000056,0.015367408999736654,216.62226304999785,[-0.45222222222222225],[0.37222222222222223],[1],[0],[0],[1.8990371899999445],['target'],401422,001,2024-10-10_13h22.05.025,VISUALSEARCH,2024.2.1,None,2024-10-10 13h22.25.709866 +0530,
129,0,129,[-0.11333333333333333],[-0.19777777777777777],[1],[0],[0],[1.3489998410004773],['target'],129,0,129,0,216.65157872000054,,5,216.63828370699775,216.65157872000054,216.65157872000054,0.015854713001317577,217.98782156599918,[-0.11333333333333333],[-0.19777777777777777],[1],[0],[0],[1.3489998410004773],['target'],401422,001,2024-10-10_13h22.05.025,VISUALSEARCH,2024.2.1,None,2024-10-10 13h22.25.709866 +0530,
130,0,130,[0.14888888888888888],[0.14333333333333334],[1],[0],[0],[1.0334325219992024],['target'],130,0,130,0,218.01565170699905,,5,218.00355535199924,218.01565170699905,218.01565170699905,0.015570079998724395,219.03741477099902,[0.14888888888888888],[0.14333333333333334],[1],[0],[0],[1.0334325219992024],['target'],401422,001,2024-10-10_13h22.05.025,VISUALSEARCH,2024.2.1,None,2024-10-10 13h22.25.709866 +0530,
131,0,131,[0.31777777777777777],[-0.46555555555555556],[1],[0],[0],[2.0231145700017805],['target'],131,0,131,0,219.0819266719991,,10,219.0655613739982,219.0819266719991,219.0819266719991,0.02800858699993114,221.0892004649977,[0.31777777777777777],[-0.46555555555555556],[1],[0],[0],[2.0231145700017805],['target'],401422,001,2024-10-10_13h22.05.025,VISUALSEARCH,2024.2.1,None,2024-10-10 13h22.25.709866 +0530,
132,0,132,[-0.12111111111111111],[0.4033333333333333],[1],[0],[0],[2.3606777480017627],['target'],132,0,132,0,221.11777115899895,,5,221.10577792599724,221.11777115899895,221.11777115899895,0.0164026489983371,223.46707976099788,[-0.12111111111111111],[0.4033333333333333],[1],[0],[0],[2.3606777480017627],['target'],401422,001,2024-10-10_13h22.05.025,VISUALSEARCH,2024.2.1,None,2024-10-10 13h22.25.709866 +0530,
133,0,133,[-0.33555555555555555],[-0.4711111111111111],[1],[0],[0],[3.0227783340014867],['target'],133,0,133,0,223.51427374099876,,10,223.49602239399974,223.51427374099876,223.51427374099876,0.028734360002999892,226.519325063,[-0.33555555555555555],[-0.4711111111111111],[1],[0],[0],[3.0227783340014867],['target'],401422,001,2024-10-10_13h22.05.025,VISUALSEARCH,2024.2.1,None,2024-10-10 13h22.25.709866 +0530,
134,0,134,[-0.38666666666666666],[-0.2311111111111111],[1],[0],[0],[2.1330945399968186],['target'],134,0,134,0,226.56347477999952,,10,226.54665913499775,226.56347477999952,226.56347477999952,0.027128182002343237,228.68025820299954,[-0.38666666666666666],[-0.2311111111111111],[1],[0],[0],[2.1330945399968186],['target'],401422,001,2024-10-10_13h22.05.025,VISUALSEARCH,2024.2.1,None,2024-10-10 13h22.25.709866 +0530,
135,0,135,[-0.05444444444444444],[0.37555555555555553],[1],[0],[0],[1.642566804002854],['target'],135,0,135,0,228.70690398799707,,5,228.69537511700037,228.70690398799707,228.70690398799707,0.014903384999342961,230.33837760299866,[-0.05444444444444444],[0.37555555555555553],[1],[0],[0],[1.642566804002854],['target'],401422,001,2024-10-10_13h22.05.025,VISUALSEARCH,2024.2.1,None,2024-10-10 13h22.25.709866 +0530,
136,0,136,[-0.08555555555555555],[0.3244444444444444],[1],[0],[0],[1.2952764760011632],['target'],136,0,136,0,230.36639953399936,,5,230.35416661399722,230.36639953399936,230.36639953399936,0.015636390999134164,231.6499624019998,[-0.08555555555555555],[0.3244444444444444],[1],[0],[0],[1.2952764760011632],['target'],401422,001,2024-10-10_13h22.05.025,VISUALSEARCH,2024.2.1,None,2024-10-10 13h22.25.709866 +0530,
137,0,137,[-0.2611111111111111],[0.46111111111111114],[1],[0],[0],[2.003414430000703],['target'],137,0,137,0,231.69769607999842,,10,231.67868956500024,231.69769607999842,231.69769607999842,0.028537271999084624,233.6825515519995,[-0.2611111111111111],[0.46111111111111114],[1],[0],[0],[2.003414430000703],['target'],401422,001,2024-10-10_13h22.05.025,VISUALSEARCH,2024.2.1,None,2024-10-10 13h22.25.709866 +0530,
138,0,138,[0.29444444444444445],[-0.0022222222222222222],[1],[0],[0],[1.7222756869996374],['target'],138,0,138,0,233.72797687799903,,10,233.71183624900004,233.72797687799903,233.72797687799903,0.029100743002345553,235.4349358369982,[0.29444444444444445],[-0.0022222222222222222],[1],[0],[0],[1.7222756869996374],['target'],401422,001,2024-10-10_13h22.05.025,VISUALSEARCH,2024.2.1,None,2024-10-10 13h22.25.709866 +0530,
139,0,139,[0.22555555555555556],[0.13111111111111112],[1],[0],[0],[1.5195391769993876],['target'],139,0,139,0,235.48290162400008,,10,235.46692946199983,235.48290162400008,235.48290162400008,0.03168315400034771,236.98690370199984,[0.22555555555555556],[0.13111111111111112],[1],[0],[0],[1.5195391769993876],['target'],401422,001,2024-10-10_13h22.05.025,VISUALSEARCH,2024.2.1,None,2024-10-10 13h22.25.709866 +0530,
140,0,140,[-0.37555555555555553],[0.19777777777777777],[1],[0],[0],[2.059272319998854],['target'],140,0,140,0,237.02984456099875,,10,237.01415590000033,237.02984456099875,237.02984456099875,0.027094395998574328,239.07398151099915,[-0.37555555555555553],[0.19777777777777777],[1],[0],[0],[2.059272319998854],['target'],401422,001,2024-10-10_13h22.05.025,VISUALSEARCH,2024.2.1,None,2024-10-10 13h22.25.709866 +0530,
141,0,141,[-0.2011111111111111],[0.14333333333333334],[1],[0],[0],[1.892830924000009],['target'],141,0,141,0,239.11824314499972,,10,239.10302966999734,239.11824314499972,239.11824314499972,0.028838204001658596,240.9963601879972,[-0.2011111111111111],[0.14333333333333334],[1],[0],[0],[1.892830924000009],['target'],401422,001,2024-10-10_13h22.05.025,VISUALSEARCH,2024.2.1,None,2024-10-10 13h22.25.709866 +0530,
142,0,142,[-0.3433333333333333],[-0.18444444444444444],[1],[0],[0],[1.7121482229995308],['target'],142,0,142,0,241.03907636999793,,10,241.02308118099972,241.03907636999793,241.03907636999793,0.026541036000708118,242.7359050140003,[-0.3433333333333333],[-0.18444444444444444],[1],[0],[0],[1.7121482229995308],['target'],401422,001,2024-10-10_13h22.05.025,VISUALSEARCH,2024.2.1,None,2024-10-10 13h22.25.709866 +0530,
143,0,143,[0.46],[-0.15444444444444444],[1],[0],[0],[2.1897221469989745],['target'],143,0,143,0,242.76448960299967,,5,242.7536755029978,242.76448960299967,242.76448960299967,0.017513015001895837,244.9438756210002,[0.46],[-0.15444444444444444],[1],[0],[0],[2.1897221469989745],['target'],401422,001,2024-10-10_13h22.05.025,VISUALSEARCH,2024.2.1,None,2024-10-10 13h22.25.709866 +0530,
144,0,144,[0.2388888888888889],[-0.01],[1],[0],[0],[1.175068062999344],['target'],144,0,144,0,244.97006551400045,,5,244.95878817999983,244.97006551400045,244.97006551400045,0.014739181999175344,246.1343474739988,[0.2388888888888889],[-0.01],[1],[0],[0],[1.175068062999344],['target'],401422,001,2024-10-10_13h22.05.025,VISUALSEARCH,2024.2.1,None,2024-10-10 13h22.25.709866 +0530,
145,0,145,[0.07777777777777778],[0.44333333333333336],[1],[0],[0],[2.736988854001538],['target'],145,0,145,0,246.17848898599914,,10,246.1621451619976,246.17848898599914,246.17848898599914,0.02762628300115466,248.8997104959999,[0.07777777777777778],[0.44333333333333336],[1],[0],[0],[2.736988854001538],['target'],401422,001,2024-10-10_13h22.05.025,VISUALSEARCH,2024.2.1,None,2024-10-10 13h22.25.709866 +0530,
146,0,146,[0.32],[-0.18777777777777777],[1],[0],[0],[1.6245257040027354],['target'],146,0,146,0,248.94596446799915,,10,248.92922743899908,248.94596446799915,248.94596446799915,0.02926505000141333,250.55425632900005,[0.32],[-0.18777777777777777],[1],[0],[0],[1.6245257040027354],['target'],401422,001,2024-10-10_13h22.05.025,VISUALSEARCH,2024.2.1,None,2024-10-10 13h22.25.709866 +0530,
147,0,147,[-0.09888888888888889],[0.4888888888888889],[1],[0],[0],[2.024320839998836],['target'],147,0,147,0,250.59807986399755,,10,250.58245880299728,250.59807986399755,250.59807986399755,0.028048414998920634,252.60727711399886,[-0.09888888888888889],[0.4888888888888889],[1],[0],[0],[2.024320839998836],['target'],401422,001,2024-10-10_13h22.05.025,VISUALSEARCH,2024.2.1,None,2024-10-10 13h22.25.709866 +0530,
148,0,148,[-0.12555555555555556],[-0.06777777777777778],[1],[0],[0],[1.4078593010017357],['target'],148,0,148,0,252.65398569999888,,10,252.63668207999945,252.65398569999888,252.65398569999888,0.029200788001617184,254.0452239749975,[-0.12555555555555556],[-0.06777777777777778],[1],[0],[0],[1.4078593010017357],['target'],401422,001,2024-10-10_13h22.05.025,VISUALSEARCH,2024.2.1,None,2024-10-10 13h22.25.709866 +0530,
149,0,149,[-0.27555555555555555],[-0.2544444444444444],[1],[0],[0],[1.5199862070003292],['target'],149,0,149,0,254.08983456999704,,10,254.07426815600047,254.08983456999704,254.08983456999704,0.02885801599768456,255.5949906959977,[-0.27555555555555555],[-0.2544444444444444],[1],[0],[0],[1.5199862070003292],['target'],401422,001,2024-10-10_13h22.05.025,VISUALSEARCH,2024.2.1,None,2024-10-10 13h22.25.709866 +0530,
150,0,150,[0.07444444444444444],[-0.08333333333333333],[1],[0],[0],[1.3752983150006912],['target'],150,0,150,0,255.62371205799718,,5,255.61042111200004,255.62371205799718,255.62371205799718,0.015158392998273484,256.9861193109973,[0.07444444444444444],[-0.08333333333333333],[1],[0],[0],[1.3752983150006912],['target'],401422,001,2024-10-10_13h22.05.025,VISUALSEARCH,2024.2.1,None,2024-10-10 13h22.25.709866 +0530,
151,0,151,[-0.08888888888888889],[-0.21888888888888888],[1],[0],[0],[0.9531863570009591],['target'],151,0,151,0,257.01301498199973,,5,257.0011475539977,257.01301498199973,257.01301498199973,0.014879401998769026,257.95486385299955,[-0.08888888888888889],[-0.21888888888888888],[1],[0],[0],[0.9531863570009591],['target'],401422,001,2024-10-10_13h22.05.025,VISUALSEARCH,2024.2.1,None,2024-10-10 13h22.25.709866 +0530,
152,0,152,[0.20555555555555555],[0.4255555555555556],[1],[0],[0],[2.0008382569976675],['target'],152,0,152,0,258.0011885599997,,10,257.98438485899896,258.0011885599997,258.0011885599997,0.02933403899805853,259.98590843700003,[0.20555555555555555],[0.4255555555555556],[1],[0],[0],[2.0008382569976675],['target'],401422,001,2024-10-10_13h22.05.025,VISUALSEARCH,2024.2.1,None,2024-10-10 13h22.25.709866 +0530,
153,0,153,[-0.0077777777777777776],[-0.06888888888888889],[1],[0],[0],[1.3762770800021826],['target'],153,0,153,0,260.0136694529974,,5,260.0012324399977,260.0136694529974,260.0136694529974,0.0151114559994312,261.3783621900002,[-0.0077777777777777776],[-0.06888888888888889],[1],[0],[0],[1.3762770800021826],['target'],401422,001,2024-10-10_13h22.05.025,VISUALSEARCH,2024.2.1,None,2024-10-10 13h22.25.709866 +0530,
154,0,154,[0.13777777777777778],[0.1811111111111111],[1],[0],[0],[1.391622830000415],['target'],154,0,154,0,261.42435424299765,,10,261.40891451899734,261.42435424299765,261.42435424299765,0.030246032001741696,262.801060501999,[0.13777777777777778],[0.1811111111111111],[1],[0],[0],[1.391622830000415],['target'],401422,001,2024-10-10_13h22.05.025,VISUALSEARCH,2024.2.1,None,2024-10-10 13h22.25.709866 +0530,
155,0,155,[-0.2633333333333333],[0.21333333333333335],[1],[0],[0],[1.0573450640004012],['target'],155,0,155,0,262.8435378079994,,10,262.828069788,262.8435378079994,262.8435378079994,0.026785291000123834,263.8858083239975,[-0.2633333333333333],[0.21333333333333335],[1],[0],[0],[1.0573450640004012],['target'],401422,001,2024-10-10_13h22.05.025,VISUALSEARCH,2024.2.1,None,2024-10-10 13h22.25.709866 +0530,
156,0,156,[-0.18222222222222223],[0.15777777777777777],[1],[0],[0],[1.2063295169973571],['target'],156,0,156,0,263.9293793689976,,10,263.9135641139983,263.9293793689976,263.9293793689976,0.02761110899882624,265.120374291997,[-0.18222222222222223],[0.15777777777777777],[1],[0],[0],[1.2063295169973571],['target'],401422,001,2024-10-10_13h22.05.025,VISUALSEARCH,2024.2.1,None,2024-10-10 13h22.25.709866 +0530,
157,0,157,[-0.48444444444444446],[-0.28555555555555556],[1],[0],[0],[2.8011119959992357],['target'],157,0,157,0,265.1497694509999,,5,265.1365371899992,265.1497694509999,265.1497694509999,0.01597882600253797,267.93811323800037,[-0.48444444444444446],[-0.28555555555555556],[1],[0],[0],[2.8011119959992357],['target'],401422,001,2024-10-10_13h22.05.025,VISUALSEARCH,2024.2.1,None,2024-10-10 13h22.25.709866 +0530,
158,0,158,[0.27444444444444444],[-0.11444444444444445],[1],[0],[0],[1.2473551529983524],['target'],158,0,158,0,267.9660539559991,,5,267.9543184449976,267.9660539559991,267.9660539559991,0.016032807998271892,269.2022241729974,[0.27444444444444444],[-0.11444444444444445],[1],[0],[0],[1.2473551529983524],['target'],401422,001,2024-10-10_13h22.05.025,VISUALSEARCH,2024.2.1,None,2024-10-10 13h22.25.709866 +0530,
159,0,159,[0.03333333333333333],[0.23333333333333334],[1],[0],[0],[1.355026455999905],['target'],159,0,159,0,269.23203427599947,,5,269.2199907369977,269.23203427599947,269.23203427599947,0.017561081000167178,270.5754571849975,[0.03333333333333333],[0.23333333333333334],[1],[0],[0],[1.355026455999905],['target'],401422,001,2024-10-10_13h22.05.025,VISUALSEARCH,2024.2.1,None,2024-10-10 13h22.25.709866 +0530,
160,0,160,[0.3466666666666667],[0.41],[1],[0],[0],[1.2889087299990933],['target'],160,0,160,0,270.6073224319989,,5,270.5936408109992,270.6073224319989,270.6073224319989,0.018061197999486467,271.88323680199755,[0.3466666666666667],[0.41],[1],[0],[0],[1.2889087299990933],['target'],401422,001,2024-10-10_13h22.05.025,VISUALSEARCH,2024.2.1,None,2024-10-10 13h22.25.709866 +0530,
161,0,161,[0.3711111111111111],[-0.09888888888888889],[1],[0],[0],[1.3469361660027062],['target'],161,0,161,0,271.91480604699973,,5,271.90320831499776,271.91480604699973,271.91480604699973,0.01971226400200976,273.25072240100053,[0.3711111111111111],[-0.09888888888888889],[1],[0],[0],[1.3469361660027062],['target'],401422,001,2024-10-10_13h22.05.025,VISUALSEARCH,2024.2.1,None,2024-10-10 13h22.25.709866 +0530,
162,0,162,[-0.38666666666666666],[0.09555555555555556],[1],[0],[0],[1.4608403950005595],['target'],162,0,162,0,273.2969827140005,,10,273.28081272899726,273.2969827140005,273.2969827140005,0.029898361000959994,274.74206260699793,[-0.38666666666666666],[0.09555555555555556],[1],[0],[0],[1.4608403950005595],['target'],401422,001,2024-10-10_13h22.05.025,VISUALSEARCH,2024.2.1,None,2024-10-10 13h22.25.709866 +0530,
163,0,163,[-0.37666666666666665],[0.17777777777777778],[1],[0],[0],[1.2441400669995346],['target'],163,0,163,0,274.76874879899697,,5,274.75656261399854,274.76874879899697,274.76874879899697,0.014340538997203112,276.0011417269998,[-0.37666666666666665],[0.17777777777777778],[1],[0],[0],[1.2441400669995346],['target'],401422,001,2024-10-10_13h22.05.025,VISUALSEARCH,2024.2.1,None,2024-10-10 13h22.25.709866 +0530,
164,0,164,[0.28888888888888886],[-0.27444444444444444],[1],[0],[0],[1.5202413250008249],['target'],164,0,164,0,276.02686741399884,,5,276.0154434010001,276.02686741399884,276.02686741399884,0.014158202000544406,277.53611793699747,[0.28888888888888886],[-0.27444444444444444],[1],[0],[0],[1.5202413250008249],['target'],401422,001,2024-10-10_13h22.05.025,VISUALSEARCH,2024.2.1,None,2024-10-10 13h22.25.709866 +0530,
165,0,165,[0.25333333333333335],[0.04888888888888889],[1],[0],[0],[1.230916418000561],['target'],165,0,165,0,277.5794448859997,,10,277.56373173999964,277.5794448859997,277.5794448859997,0.027469919001305243,278.795339712,[0.25333333333333335],[0.04888888888888889],[1],[0],[0],[1.230916418000561],['target'],401422,001,2024-10-10_13h22.05.025,VISUALSEARCH,2024.2.1,None,2024-10-10 13h22.25.709866 +0530,
166,0,166,[-0.2388888888888889],[-0.36666666666666664],[1],[0],[0],[1.5892848729999969],['target'],166,0,166,0,278.82733190699946,,5,278.8139113489997,278.82733190699946,278.82733190699946,0.01830823799900827,280.40375731899985,[-0.2388888888888889],[-0.36666666666666664],[1],[0],[0],[1.5892848729999969],['target'],401422,001,2024-10-10_13h22.05.025,VISUALSEARCH,2024.2.1,None,2024-10-10 13h22.25.709866 +0530,
167,0,167,[0.23444444444444446],[0.12555555555555556],[1],[0],[0],[1.199812072001805],['target'],167,0,167,0,280.43035934399813,,5,280.41888245299924,280.43035934399813,280.43035934399813,0.014977504000853514,281.6193394789989,[0.23444444444444446],[0.12555555555555556],[1],[0],[0],[1.199812072001805],['target'],401422,001,2024-10-10_13h22.05.025,VISUALSEARCH,2024.2.1,None,2024-10-10 13h22.25.709866 +0530,
168,0,168,[-0.18444444444444444],[0.04777777777777778],[1],[0],[0],[1.8093196929985425],['target'],168,0,168,0,281.66501617599715,,10,281.64906568199876,281.66501617599715,281.66501617599715,0.029552787000284297,283.45889209099914,[-0.18444444444444444],[0.04777777777777778],[1],[0],[0],[1.8093196929985425],['target'],401422,001,2024-10-10_13h22.05.025,VISUALSEARCH,2024.2.1,None,2024-10-10 13h22.25.709866 +0530,
169,0,169,[0.27111111111111114],[-0.2966666666666667],[1],[0],[0],[1.5069696520004072],['target'],169,0,169,0,283.5021406149972,,10,283.48593816799985,283.5021406149972,283.5021406149972,0.026797623999300413,284.9933934879991,[0.27111111111111114],[-0.2966666666666667],[1],[0],[0],[1.5069696520004072],['target'],401422,001,2024-10-10_13h22.05.025,VISUALSEARCH,2024.2.1,None,2024-10-10 13h22.25.709866 +0530,
170,0,170,[0.05555555555555555],[0.44666666666666666],[1],[0],[0],[3.4068340609992447],['target'],170,0,170,0,285.0368647309988,,10,285.02064030399924,285.0368647309988,285.0368647309988,0.027029171000322094,288.42804635599896,[0.05555555555555555],[0.44666666666666666],[1],[0],[0],[3.4068340609992447],['target'],401422,001,2024-10-10_13h22.05.025,VISUALSEARCH,2024.2.1,None,2024-10-10 13h22.25.709866 +0530,
171,0,171,[0.38555555555555554],[-0.3277777777777778],[1],[0],[0],[1.8611600690019259],['target'],171,0,171,0,288.4734987720003,,10,288.4548633129998,288.4734987720003,288.4734987720003,0.026642897999408888,290.31648181799756,[0.38555555555555554],[-0.3277777777777778],[1],[0],[0],[1.8611600690019259],['target'],401422,001,2024-10-10_13h22.05.025,VISUALSEARCH,2024.2.1,None,2024-10-10 13h22.25.709866 +0530,
172,0,172,[0.36],[0.43777777777777777],[1],[0],[0],[4.021610879000946],['target'],172,0,172,0,290.36085301599815,,10,290.34523988,290.36085301599815,290.36085301599815,0.028581298000062816,294.3674041519989,[0.36],[0.43777777777777777],[1],[0],[0],[4.021610879000946],['target'],401422,001,2024-10-10_13h22.05.025,VISUALSEARCH,2024.2.1,None,2024-10-10 13h22.25.709866 +0530,
173,0,173,[-0.34],[0.20555555555555555],[1],[0],[0],[2.597325570997782],['target'],173,0,173,0,294.41118136099976,,10,294.3947473169974,294.41118136099976,294.41118136099976,0.02713813499940443,296.99265258800006,[-0.34],[0.20555555555555555],[1],[0],[0],[2.597325570997782],['target'],401422,001,2024-10-10_13h22.05.025,VISUALSEARCH,2024.2.1,None,2024-10-10 13h22.25.709866 +0530,
174,0,174,[-0.24555555555555555],[0.07888888888888888],[1],[0],[0],[1.1635521530006372],['target'],174,0,174,0,297.03767385899846,,10,297.0205177930002,297.03767385899846,297.03767385899846,0.0276791289979883,298.1847876779975,[-0.24555555555555555],[0.07888888888888888],[1],[0],[0],[1.1635521530006372],['target'],401422,001,2024-10-10_13h22.05.025,VISUALSEARCH,2024.2.1,None,2024-10-10 13h22.25.709866 +0530,
175,0,175,[-0.33555555555555555],[-0.32666666666666666],[1],[0],[0],[2.108948370998405],['target'],175,0,175,0,298.23309917699953,,10,298.2174669769993,298.23309917699953,298.23309917699953,0.03234502299892483,300.3270531620001,[-0.33555555555555555],[-0.32666666666666666],[1],[0],[0],[2.108948370998405],['target'],401422,001,2024-10-10_13h22.05.025,VISUALSEARCH,2024.2.1,None,2024-10-10 13h22.25.709866 +0530,
176,0,176,[-0.22777777777777777],[-0.29],[1],[0],[0],[1.2692510950000724],['target'],176,0,176,0,300.35307331799777,,5,300.34174014999735,300.35307331799777,300.35307331799777,0.014426795998588204,301.6116099739993,[-0.22777777777777777],[-0.29],[1],[0],[0],[1.2692510950000724],['target'],401422,001,2024-10-10_13h22.05.025,VISUALSEARCH,2024.2.1,None,2024-10-10 13h22.25.709866 +0530,
177,0,177,[-0.2922222222222222],[0.035555555555555556],[1],[0],[0],[1.5237984490013332],['target'],177,0,177,0,301.65725327399923,,10,301.6413354180004,301.65725327399923,301.65725327399923,0.02950887400220381,303.1656445009976,[-0.2922222222222222],[0.035555555555555556],[1],[0],[0],[1.5237984490013332],['target'],401422,001,2024-10-10_13h22.05.025,VISUALSEARCH,2024.2.1,None,2024-10-10 13h22.25.709866 +0530,
178,0,178,[0.3477777777777778],[0.48444444444444446],[1],[0],[0],[2.8385655120000592],['target'],178,0,178,0,303.2120445949986,,10,303.1954511820004,303.2120445949986,303.2120445949986,0.029557399000623263,306.0346019659992,[0.3477777777777778],[0.48444444444444446],[1],[0],[0],[2.8385655120000592],['target'],401422,001,2024-10-10_13h22.05.025,VISUALSEARCH,2024.2.1,None,2024-10-10 13h22.25.709866 +0530,
179,0,179,[-0.2833333333333333],[-0.3022222222222222],[1],[0],[0],[3.0697969920001924],['target'],179,0,179,0,306.06248646699896,,5,306.05013555500045,306.06248646699896,306.06248646699896,0.015319084999646293,309.12048152699936,[-0.2833333333333333],[-0.3022222222222222],[1],[0],[0],[3.0697969920001924],['target'],401422,001,2024-10-10_13h22.05.025,VISUALSEARCH,2024.2.1,None,2024-10-10 13h22.25.709866 +0530,
180,0,180,[0.4288888888888889],[-0.035555555555555556],[1],[0],[0],[1.5275299339991761],['target'],180,0,180,0,309.1530677560004,,5,309.1397744549977,309.1530677560004,309.1530677560004,0.01908253900182899,310.6678895699988,[0.4288888888888889],[-0.035555555555555556],[1],[0],[0],[1.5275299339991761],['target'],401422,001,2024-10-10_13h22.05.025,VISUALSEARCH,2024.2.1,None,2024-10-10 13h22.25.709866 +0530,
181,0,181,[-0.16333333333333333],[0.3711111111111111],[1],[0],[0],[1.5531686430003901],['target'],181,0,181,0,310.6966190589992,,5,310.6842701429996,310.6966190589992,310.6966190589992,0.016164969998499146,312.23796043999755,[-0.16333333333333333],[0.3711111111111111],[1],[0],[0],[1.5531686430003901],['target'],401422,001,2024-10-10_13h22.05.025,VISUALSEARCH,2024.2.1,None,2024-10-10 13h22.25.709866 +0530,
182,0,182,[-0.05444444444444444],[-0.03666666666666667],[1],[0],[0],[1.5247356930012756],['target'],182,0,182,0,312.28387296599976,,10,312.2676114959977,312.28387296599976,312.28387296599976,0.029485005998139968,313.7928725399979,[-0.05444444444444444],[-0.03666666666666667],[1],[0],[0],[1.5247356930012756],['target'],401422,001,2024-10-10_13h22.05.025,VISUALSEARCH,2024.2.1,None,2024-10-10 13h22.25.709866 +0530,
183,0,183,[0.15],[0.33444444444444443],[1],[0],[0],[1.2263381390002905],['target'],183,0,183,0,313.82107136099876,,5,313.8089852039993,313.82107136099876,313.82107136099876,0.015882891002547694,315.03589985299914,[0.15],[0.33444444444444443],[1],[0],[0],[1.2263381390002905],['target'],401422,001,2024-10-10_13h22.05.025,VISUALSEARCH,2024.2.1,None,2024-10-10 13h22.25.709866 +0530,
184,0,184,[0.21444444444444444],[-0.4288888888888889],[1],[0],[0],[1.6321460340004705],['target'],184,0,184,0,315.063829126997,,5,315.05131431100017,315.063829126997,315.063829126997,0.015226415001961868,316.68416931499814,[0.21444444444444444],[-0.4288888888888889],[1],[0],[0],[1.6321460340004705],['target'],401422,001,2024-10-10_13h22.05.025,VISUALSEARCH,2024.2.1,None,2024-10-10 13h22.25.709866 +0530,
185,0,185,[0.051111111111111114],[0.3011111111111111],[1],[0],[0],[1.4716954409996106],['target'],185,0,185,0,316.7298064489987,,10,316.71350021899707,316.7298064489987,316.7298064489987,0.029107613998348825,318.18567752799936,[0.051111111111111114],[0.3011111111111111],[1],[0],[0],[1.4716954409996106],['target'],401422,001,2024-10-10_13h22.05.025,VISUALSEARCH,2024.2.1,None,2024-10-10 13h22.25.709866 +0530,
186,0,186,[0.4],[-0.3788888888888889],[1],[0],[0],[1.7088350810008706],['target'],186,0,186,0,318.21387486899766,,5,318.2011108539991,318.21387486899766,318.21387486899766,0.015256531001796247,319.910649393998,[0.4],[-0.3788888888888889],[1],[0],[0],[1.7088350810008706],['target'],401422,001,2024-10-10_13h22.05.025,VISUALSEARCH,2024.2.1,None,2024-10-10 13h22.25.709866 +0530,
187,0,187,[0.057777777777777775],[-0.3511111111111111],[1],[0],[0],[1.8475734550011111],['target'],187,0,187,0,319.95717016999697,,10,319.93915401199774,319.95717016999697,319.95717016999697,0.028242164000403136,321.78713430599964,[0.057777777777777775],[-0.3511111111111111],[1],[0],[0],[1.8475734550011111],['target'],401422,001,2024-10-10_13h22.05.025,VISUALSEARCH,2024.2.1,None,2024-10-10 13h22.25.709866 +0530,
188,0,188,[0.02666666666666667],[0.057777777777777775],[1],[0],[0],[1.1472812219981279],['target'],188,0,188,0,321.81629278999753,,5,321.8028011799979,321.81629278999753,321.81629278999753,0.015491510999709135,322.9504674899981,[0.02666666666666667],[0.057777777777777775],[1],[0],[0],[1.1472812219981279],['target'],401422,001,2024-10-10_13h22.05.025,VISUALSEARCH,2024.2.1,None,2024-10-10 13h22.25.709866 +0530,
189,0,189,[0.15666666666666668],[-0.36777777777777776],[1],[0],[0],[1.4893471119976311],['target'],189,0,189,0,322.976681928998,,5,322.96468878799715,322.976681928998,322.976681928998,0.014094680998823605,324.4545459990004,[0.15666666666666668],[-0.36777777777777776],[1],[0],[0],[1.4893471119976311],['target'],401422,001,2024-10-10_13h22.05.025,VISUALSEARCH,2024.2.1,None,2024-10-10 13h22.25.709866 +0530,
190,0,190,[-0.28444444444444444],[0.20222222222222222],[1],[0],[0],[1.59195457199894],['target'],190,0,190,0,324.4998704589998,,10,324.4838303359975,324.4998704589998,324.4998704589998,0.029111168001691112,326.0762113069977,[-0.28444444444444444],[0.20222222222222222],[1],[0],[0],[1.59195457199894],['target'],401422,001,2024-10-10_13h22.05.025,VISUALSEARCH,2024.2.1,None,2024-10-10 13h22.25.709866 +0530,
191,0,191,[-0.0022222222222222222],[-0.43555555555555553],[1],[0],[0],[1.7321197029996256],['target'],191,0,191,0,326.11967650099905,,10,326.1033637649998,326.11967650099905,326.11967650099905,0.0269334330005222,327.8358759429975,[-0.0022222222222222222],[-0.43555555555555553],[1],[0],[0],[1.7321197029996256],['target'],401422,001,2024-10-10_13h22.05.025,VISUALSEARCH,2024.2.1,None,2024-10-10 13h22.25.709866 +0530,
192,0,192,[-0.35555555555555557],[-0.28888888888888886],[1],[0],[0],[2.0988082620024215],['target'],192,0,192,0,327.8626438539977,,5,327.8508082139997,327.8626438539977,327.8626438539977,0.014774744999158429,329.9503299499993,[-0.35555555555555557],[-0.28888888888888886],[1],[0],[0],[2.0988082620024215],['target'],401422,001,2024-10-10_13h22.05.025,VISUALSEARCH,2024.2.1,None,2024-10-10 13h22.25.709866 +0530,
193,0,193,[-0.2411111111111111],[0.3333333333333333],[1],[0],[0],[1.526819656999578],['target'],193,0,193,0,329.995306984998,,10,329.97892007799965,329.995306984998,329.995306984998,0.02842982500078506,331.5062140569971,[-0.2411111111111111],[0.3333333333333333],[1],[0],[0],[1.526819656999578],['target'],401422,001,2024-10-10_13h22.05.025,VISUALSEARCH,2024.2.1,None,2024-10-10 13h22.25.709866 +0530,
194,0,194,[0.12333333333333334],[0.4033333333333333],[1],[0],[0],[1.36756650100142],['target'],194,0,194,0,331.5582568039972,,10,331.53881527499834,331.5582568039972,331.5582568039972,0.03243521499825874,332.90703491399836,[0.12333333333333334],[0.4033333333333333],[1],[0],[0],[1.36756650100142],['target'],401422,001,2024-10-10_13h22.05.025,VISUALSEARCH,2024.2.1,None,2024-10-10 13h22.25.709866 +0530,
195,0,195,[-0.08777777777777777],[0.4955555555555556],[1],[0],[0],[1.2810275679985352],['target'],195,0,195,0,332.9360349130002,,5,332.9239227129983,332.9360349130002,332.9360349130002,0.01654325499839615,334.2055674769981,[-0.08777777777777777],[0.4955555555555556],[1],[0],[0],[1.2810275679985352],['target'],401422,001,2024-10-10_13h22.05.025,VISUALSEARCH,2024.2.1,None,2024-10-10 13h22.25.709866 +0530,
196,0,196,[0.25555555555555554],[0.13666666666666666],[1],[0],[0],[1.5422839380007645],['target'],196,0,196,0,334.25276367699917,,10,334.2363645259975,334.25276367699917,334.25276367699917,0.030596249001973774,335.7792300990004,[0.25555555555555554],[0.13666666666666666],[1],[0],[0],[1.5422839380007645],['target'],401422,001,2024-10-10_13h22.05.025,VISUALSEARCH,2024.2.1,None,2024-10-10 13h22.25.709866 +0530,
197,0,197,[0.035555555555555556],[0.24444444444444444],[1],[0],[0],[1.4095647540016216],['target'],197,0,197,0,335.82311929599746,,10,335.8073645879995,335.82311929599746,335.82311929599746,0.02792445399973076,337.2173676989987,[0.035555555555555556],[0.24444444444444444],[1],[0],[0],[1.4095647540016216],['target'],401422,001,2024-10-10_13h22.05.025,VISUALSEARCH,2024.2.1,None,2024-10-10 13h22.25.709866 +0530,
198,0,198,[0.06],[0.3011111111111111],[1],[0],[0],[0.8057662320024974],['target'],198,0,198,0,337.24999188400034,,5,337.236052414999,337.24999188400034,337.24999188400034,0.01849188100095489,338.04273919299885,[0.06],[0.3011111111111111],[1],[0],[0],[0.8057662320024974],['target'],401422,001,2024-10-10_13h22.05.025,VISUALSEARCH,2024.2.1,None,2024-10-10 13h22.25.709866 +0530,
199,0,199,[0.4822222222222222],[0.37222222222222223],[1],[0],[0],[1.6404214150024927],['target'],199,0,199,0,338.07059643299726,,5,338.05891768699803,338.07059643299726,338.07059643299726,0.015991926000424428,339.6998543230002,[0.4822222222222222],[0.37222222222222223],[1],[0],[0],[1.6404214150024927],['target'],401422,001,2024-10-10_13h22.05.025,VISUALSEARCH,2024.2.1,None,2024-10-10 13h22.25.709866 +0530,
