thisN,thisTrialN,thisRepN,mouse.x,mouse.y,mouse.leftButton,mouse.midButton,mouse.rightButton,mouse.time,mouse.clicked_name,trials.thisRepN,trials.thisTrialN,trials.thisN,trials.thisIndex,thisRow.t,notes,num_distr,trial.started,fixation.started,target.started,mouse.started,trial.stopped,trials.mouse.x,trials.mouse.y,trials.mouse.leftButton,trials.mouse.midButton,trials.mouse.rightButton,trials.mouse.time,trials.mouse.clicked_name,participant,session,date,expName,psychopyVersion,frameRate,expStart,
0,0,0,[-0.08666666666666667],[-0.12666666666666668],[1],[0],[0],[1.5384286669977882],['target'],0,0,0,0,0.07732025099903694,,10,0.054925418000493664,0.07732025099903694,0.07732025099903694,0.05458725400239928,1.5937600370016298,[-0.08666666666666667],[-0.12666666666666668],[1],[0],[0],[1.5384286669977882],['target'],705599,001,2024-10-10_13h39.22.626,VISUALSEARCH,2024.2.1,None,2024-10-10 13h43.58.343800 +0530,
1,0,1,[0.395],[0.008333333333333333],[1],[0],[0],[2.9170099910006684],['target'],1,0,1,0,1.6359306990016194,,10,1.6229618770012166,1.6359306990016194,1.6359306990016194,0.029016043998126406,4.540593898000225,[0.395],[0.008333333333333333],[1],[0],[0],[2.9170099910006684],['target'],705599,001,2024-10-10_13h39.22.626,VISUALSEARCH,2024.2.1,None,2024-10-10 13h43.58.343800 +0530,
2,0,2,[-0.12833333333333333],[0.2833333333333333],[1],[0],[0],[1.3339319660008186],['target'],2,0,2,0,4.582516972001031,,10,4.569131033000303,4.582516972001031,4.582516972001031,0.028376758000376867,5.903536878002342,[-0.12833333333333333],[0.2833333333333333],[1],[0],[0],[1.3339319660008186],['target'],705599,001,2024-10-10_13h39.22.626,VISUALSEARCH,2024.2.1,None,2024-10-10 13h43.58.343800 +0530,
3,0,3,[-0.21166666666666667],[-0.021666666666666667],[1],[0],[0],[1.3408190709997143],['target'],3,0,3,0,5.945131709999259,,10,5.930999058000452,5.945131709999259,5.945131709999259,0.027272708000964485,7.272217579000426,[-0.21166666666666667],[-0.021666666666666667],[1],[0],[0],[1.3408190709997143],['target'],705599,001,2024-10-10_13h39.22.626,VISUALSEARCH,2024.2.1,None,2024-10-10 13h43.58.343800 +0530,
4,0,4,[0.335],[0.265],[1],[0],[0],[1.4962106159982795],['target'],4,0,4,0,7.312476777002303,,10,7.2990827550020185,7.312476777002303,7.312476777002303,0.026694038999266922,8.795892043999629,[0.335],[0.265],[1],[0],[0],[1.4962106159982795],['target'],705599,001,2024-10-10_13h39.22.626,VISUALSEARCH,2024.2.1,None,2024-10-10 13h43.58.343800 +0530,
5,0,5,[0.07166666666666667],[0.15],[1],[0],[0],[1.1869697889997042],['target'],5,0,5,0,8.836413411001558,,10,8.823248916000011,8.836413411001558,8.836413411001558,0.027185409002413508,10.010881631002121,[0.07166666666666667],[0.15],[1],[0],[0],[1.1869697889997042],['target'],705599,001,2024-10-10_13h39.22.626,VISUALSEARCH,2024.2.1,None,2024-10-10 13h43.58.343800 +0530,
6,0,6,[0.44666666666666666],[-0.415],[1],[0],[0],[1.891536831000849],['target'],6,0,6,0,10.038981671001238,,5,10.02787213800184,10.038981671001238,10.038981671001238,0.016833982001116965,11.91978970800119,[0.44666666666666666],[-0.415],[1],[0],[0],[1.891536831000849],['target'],705599,001,2024-10-10_13h39.22.626,VISUALSEARCH,2024.2.1,None,2024-10-10 13h43.58.343800 +0530,
7,0,7,[0.32666666666666666],[0.3283333333333333],[1],[0],[0],[2.360515001000749],['target'],7,0,7,0,11.960353319002024,,10,11.946600336999836,11.960353319002024,11.960353319002024,0.026676915000280133,14.307569306001824,[0.32666666666666666],[0.3283333333333333],[1],[0],[0],[2.360515001000749],['target'],705599,001,2024-10-10_13h39.22.626,VISUALSEARCH,2024.2.1,None,2024-10-10 13h43.58.343800 +0530,
8,0,8,[-0.18833333333333332],[-0.44666666666666666],[1],[0],[0],[1.5902590850018896],['target'],8,0,8,0,14.331279920999805,,5,14.321322727002553,14.331279920999805,14.331279920999805,0.013567869002145017,15.91199196800153,[-0.18833333333333332],[-0.44666666666666666],[1],[0],[0],[1.5902590850018896],['target'],705599,001,2024-10-10_13h39.22.626,VISUALSEARCH,2024.2.1,None,2024-10-10 13h43.58.343800 +0530,
9,0,9,[-0.48333333333333334],[-0.14],[1],[0],[0],[1.4948393550002947],['target'],9,0,9,0,15.951517008001247,,10,15.93850584699976,15.951517008001247,15.951517008001247,0.026391954001155682,17.43387549199906,[-0.48333333333333334],[-0.14],[1],[0],[0],[1.4948393550002947],['target'],705599,001,2024-10-10_13h39.22.626,VISUALSEARCH,2024.2.1,None,2024-10-10 13h43.58.343800 +0530,
10,0,10,[0.185],[0.25666666666666665],[1],[0],[0],[1.3829136540007312],['target'],10,0,10,0,17.473894475002453,,10,17.461056811000162,17.473894475002453,17.473894475002453,0.02700210100010736,18.844352351999987,[0.185],[0.25666666666666665],[1],[0],[0],[1.3829136540007312],['target'],705599,001,2024-10-10_13h39.22.626,VISUALSEARCH,2024.2.1,None,2024-10-10 13h43.58.343800 +0530,
11,0,11,[-0.2633333333333333],[-0.39],[1],[0],[0],[1.8561350290001428],['target'],11,0,11,0,18.869281481001963,,5,18.859460272000433,18.869281481001963,18.869281481001963,0.014933351998479338,20.716091973001312,[-0.2633333333333333],[-0.39],[1],[0],[0],[1.8561350290001428],['target'],705599,001,2024-10-10_13h39.22.626,VISUALSEARCH,2024.2.1,None,2024-10-10 13h43.58.343800 +0530,
12,0,12,[-0.41333333333333333],[0.36666666666666664],[1],[0],[0],[1.8590076770015003],['target'],12,0,12,0,20.74018319500101,,5,20.730608031000884,20.74018319500101,20.74018319500101,0.01439240300169331,22.590177230002155,[-0.41333333333333333],[0.36666666666666664],[1],[0],[0],[1.8590076770015003],['target'],705599,001,2024-10-10_13h39.22.626,VISUALSEARCH,2024.2.1,None,2024-10-10 13h43.58.343800 +0530,
13,0,13,[0.23166666666666666],[-0.22166666666666668],[1],[0],[0],[2.219319916999666],['target'],13,0,13,0,22.63184946199908,,10,22.617944218000048,22.63184946199908,22.63184946199908,0.02747417900172877,24.837713084001734,[0.23166666666666666],[-0.22166666666666668],[1],[0],[0],[2.219319916999666],['target'],705599,001,2024-10-10_13h39.22.626,VISUALSEARCH,2024.2.1,None,2024-10-10 13h43.58.343800 +0530,
14,0,14,[0.18666666666666668],[-0.14],[1],[0],[0],[1.0389101799992204],['target'],14,0,14,0,24.861617004000436,,5,24.851841969000816,24.861617004000436,24.861617004000436,0.013968903000204591,25.891257447001408,[0.18666666666666668],[-0.14],[1],[0],[0],[1.0389101799992204],['target'],705599,001,2024-10-10_13h39.22.626,VISUALSEARCH,2024.2.1,None,2024-10-10 13h43.58.343800 +0530,
15,0,15,[0.19],[-0.10666666666666667],[1],[0],[0],[0.6761670560008497],['target'],15,0,15,0,25.932353026000783,,10,25.91863658299917,25.932353026000783,25.932353026000783,0.02724439300072845,26.595220036000683,[0.19],[-0.10666666666666667],[1],[0],[0],[0.6761670560008497],['target'],705599,001,2024-10-10_13h39.22.626,VISUALSEARCH,2024.2.1,None,2024-10-10 13h43.58.343800 +0530,
16,0,16,[0.38666666666666666],[-0.051666666666666666],[1],[0],[0],[1.2965158380029607],['target'],16,0,16,0,26.619055279999884,,5,26.609998590000032,26.619055279999884,26.619055279999884,0.014588504000130342,27.90706788800162,[0.38666666666666666],[-0.051666666666666666],[1],[0],[0],[1.2965158380029607],['target'],705599,001,2024-10-10_13h39.22.626,VISUALSEARCH,2024.2.1,None,2024-10-10 13h43.58.343800 +0530,
17,0,17,[-0.415],[-0.05],[1],[0],[0],[1.3790847820018826],['target'],17,0,17,0,27.930358091001835,,5,27.92107592600223,27.930358091001835,27.930358091001835,0.013882023999030935,29.300595595999766,[-0.415],[-0.05],[1],[0],[0],[1.3790847820018826],['target'],705599,001,2024-10-10_13h39.22.626,VISUALSEARCH,2024.2.1,None,2024-10-10 13h43.58.343800 +0530,
18,0,18,[0.265],[0.24333333333333335],[1],[0],[0],[1.4419854990010208],['target'],18,0,18,0,29.324891314001434,,5,29.314894192000793,29.324891314001434,29.324891314001434,0.014172415001667105,30.757313156002056,[0.265],[0.24333333333333335],[1],[0],[0],[1.4419854990010208],['target'],705599,001,2024-10-10_13h39.22.626,VISUALSEARCH,2024.2.1,None,2024-10-10 13h43.58.343800 +0530,
19,0,19,[0.4166666666666667],[0.13],[1],[0],[0],[1.61292163699909],['target'],19,0,19,0,30.799181368001882,,10,30.7855662280017,30.799181368001882,30.799181368001882,0.02812499300125637,32.398999016000744,[0.4166666666666667],[0.13],[1],[0],[0],[1.61292163699909],['target'],705599,001,2024-10-10_13h39.22.626,VISUALSEARCH,2024.2.1,None,2024-10-10 13h43.58.343800 +0530,
20,0,20,[0.2783333333333333],[0.04],[1],[0],[0],[1.1123427319980692],['target'],20,0,20,0,32.4234229720023,,5,32.41347810300067,32.4234229720023,32.4234229720023,0.014314598000055412,33.52622473700103,[0.2783333333333333],[0.04],[1],[0],[0],[1.1123427319980692],['target'],705599,001,2024-10-10_13h39.22.626,VISUALSEARCH,2024.2.1,None,2024-10-10 13h43.58.343800 +0530,
21,0,21,[0.095],[0.41333333333333333],[1],[0],[0],[2.251527963002445],['target'],21,0,21,0,33.567435949000355,,10,33.554147859002114,33.567435949000355,33.567435949000355,0.027796376001788303,35.80604369000139,[0.095],[0.41333333333333333],[1],[0],[0],[2.251527963002445],['target'],705599,001,2024-10-10_13h39.22.626,VISUALSEARCH,2024.2.1,None,2024-10-10 13h43.58.343800 +0530,
22,0,22,[0.07333333333333333],[-0.19333333333333333],[1],[0],[0],[1.598267482000665],['target'],22,0,22,0,35.84638417699898,,10,35.83259919000193,35.84638417699898,35.84638417699898,0.026400525999633828,37.431254610000906,[0.07333333333333333],[-0.19333333333333333],[1],[0],[0],[1.598267482000665],['target'],705599,001,2024-10-10_13h39.22.626,VISUALSEARCH,2024.2.1,None,2024-10-10 13h43.58.343800 +0530,
23,0,23,[-0.31],[0.45166666666666666],[1],[0],[0],[3.1995201659992745],['target'],23,0,23,0,37.47247798900207,,10,37.45886170900121,37.47247798900207,37.47247798900207,0.02743099900180823,40.658813240999734,[-0.31],[0.45166666666666666],[1],[0],[0],[3.1995201659992745],['target'],705599,001,2024-10-10_13h39.22.626,VISUALSEARCH,2024.2.1,None,2024-10-10 13h43.58.343800 +0530,
24,0,24,[-0.065],[-0.215],[1],[0],[0],[1.5037270809989423],['target'],24,0,24,0,40.68246650999936,,5,40.67306790799921,40.68246650999936,40.68246650999936,0.014100922999205068,42.17722026900083,[-0.065],[-0.215],[1],[0],[0],[1.5037270809989423],['target'],705599,001,2024-10-10_13h39.22.626,VISUALSEARCH,2024.2.1,None,2024-10-10 13h43.58.343800 +0530,
25,0,25,[-0.06333333333333334],[-0.30833333333333335],[1],[0],[0],[1.306882520999352],['target'],25,0,25,0,42.21788830500009,,10,42.204357348000485,42.21788830500009,42.21788830500009,0.026990782000211766,43.51160866099963,[-0.06333333333333334],[-0.30833333333333335],[1],[0],[0],[1.306882520999352],['target'],705599,001,2024-10-10_13h39.22.626,VISUALSEARCH,2024.2.1,None,2024-10-10 13h43.58.343800 +0530,
26,0,26,[-0.19],[-0.11166666666666666],[1],[0],[0],[1.1914124050017563],['target'],26,0,26,0,43.552634716001194,,10,43.53896964800151,43.552634716001194,43.552634716001194,0.027207957002246985,44.730797668999,[-0.19],[-0.11166666666666666],[1],[0],[0],[1.1914124050017563],['target'],705599,001,2024-10-10_13h39.22.626,VISUALSEARCH,2024.2.1,None,2024-10-10 13h43.58.343800 +0530,
27,0,27,[-0.325],[0.37],[1],[0],[0],[1.9745230000007723],['target'],27,0,27,0,44.75712663500235,,5,44.74661972700051,44.75712663500235,44.75712663500235,0.015662417998100864,46.72165375899931,[-0.325],[0.37],[1],[0],[0],[1.9745230000007723],['target'],705599,001,2024-10-10_13h39.22.626,VISUALSEARCH,2024.2.1,None,2024-10-10 13h43.58.343800 +0530,
28,0,28,[0.24],[0.27],[1],[0],[0],[1.4273395909985993],['target'],28,0,28,0,46.74593490999905,,5,46.73594922600023,46.74593490999905,46.74593490999905,0.014172452996717766,48.16370121300133,[0.24],[0.27],[1],[0],[0],[1.4273395909985993],['target'],705599,001,2024-10-10_13h39.22.626,VISUALSEARCH,2024.2.1,None,2024-10-10 13h43.58.343800 +0530,
29,0,29,[-0.05333333333333334],[-0.20166666666666666],[1],[0],[0],[1.3635736329997599],['target'],29,0,29,0,48.18852541900196,,5,48.178237732001435,48.18852541900196,48.18852541900196,0.014405580001039198,49.542348183000286,[-0.05333333333333334],[-0.20166666666666666],[1],[0],[0],[1.3635736329997599],['target'],705599,001,2024-10-10_13h39.22.626,VISUALSEARCH,2024.2.1,None,2024-10-10 13h43.58.343800 +0530,
30,0,30,[0.105],[-0.17666666666666667],[1],[0],[0],[1.1186289639990719],['target'],30,0,30,0,49.567352478999965,,5,49.55709799200122,49.567352478999965,49.567352478999965,0.01460797899926547,50.67613866300235,[0.105],[-0.17666666666666667],[1],[0],[0],[1.1186289639990719],['target'],705599,001,2024-10-10_13h39.22.626,VISUALSEARCH,2024.2.1,None,2024-10-10 13h43.58.343800 +0530,
31,0,31,[0.31666666666666665],[0.3383333333333333],[1],[0],[0],[1.4788118859978567],['target'],31,0,31,0,50.717840936002176,,10,50.70406464500047,50.717840936002176,50.717840936002176,0.02781308400153648,52.183289700002206,[0.31666666666666665],[0.3383333333333333],[1],[0],[0],[1.4788118859978567],['target'],705599,001,2024-10-10_13h39.22.626,VISUALSEARCH,2024.2.1,None,2024-10-10 13h43.58.343800 +0530,
32,0,32,[-0.05333333333333334],[-0.30333333333333334],[1],[0],[0],[1.648420965000696],['target'],32,0,32,0,52.208757010001136,,5,52.19807467899955,52.208757010001136,52.208757010001136,0.014614985000662273,53.84693946100015,[-0.05333333333333334],[-0.30333333333333334],[1],[0],[0],[1.648420965000696],['target'],705599,001,2024-10-10_13h39.22.626,VISUALSEARCH,2024.2.1,None,2024-10-10 13h43.58.343800 +0530,
33,0,33,[0.4716666666666667],[0.018333333333333333],[1],[0],[0],[1.2500471950006613],['target'],33,0,33,0,53.87113113500163,,5,53.86177020100149,53.87113113500163,53.87113113500163,0.014686676000565058,55.11217963500167,[0.4716666666666667],[0.018333333333333333],[1],[0],[0],[1.2500471950006613],['target'],705599,001,2024-10-10_13h39.22.626,VISUALSEARCH,2024.2.1,None,2024-10-10 13h43.58.343800 +0530,
34,0,34,[0.39666666666666667],[0.12166666666666667],[1],[0],[0],[0.8605547810002463],['target'],34,0,34,0,55.15355131800243,,10,55.13970653499928,55.15355131800243,55.15355131800243,0.027399934999266407,56.00063133900039,[0.39666666666666667],[0.12166666666666667],[1],[0],[0],[0.8605547810002463],['target'],705599,001,2024-10-10_13h39.22.626,VISUALSEARCH,2024.2.1,None,2024-10-10 13h43.58.343800 +0530,
35,0,35,[0.005],[-0.135],[1],[0],[0],[1.1726904480019584],['target'],35,0,35,0,56.04186263700103,,10,56.02828377200058,56.04186263700103,56.04186263700103,0.02749746699919342,57.201374947999284,[0.005],[-0.135],[1],[0],[0],[1.1726904480019584],['target'],705599,001,2024-10-10_13h39.22.626,VISUALSEARCH,2024.2.1,None,2024-10-10 13h43.58.343800 +0530,
36,0,36,[-0.44666666666666666],[-0.12],[1],[0],[0],[1.3180637299992668],['target'],36,0,36,0,57.226127482001175,,5,57.216336121000495,57.226127482001175,57.226127482001175,0.014805967002757825,58.53499913199994,[-0.44666666666666666],[-0.12],[1],[0],[0],[1.3180637299992668],['target'],705599,001,2024-10-10_13h39.22.626,VISUALSEARCH,2024.2.1,None,2024-10-10 13h43.58.343800 +0530,
37,0,37,[0.2633333333333333],[0.07166666666666667],[1],[0],[0],[1.6487357549995068],['target'],37,0,37,0,58.577499735001766,,10,58.56342264200066,58.577499735001766,58.577499735001766,0.02812687199912034,60.21260359799999,[0.2633333333333333],[0.07166666666666667],[1],[0],[0],[1.6487357549995068],['target'],705599,001,2024-10-10_13h39.22.626,VISUALSEARCH,2024.2.1,None,2024-10-10 13h43.58.343800 +0530,
38,0,38,[0.17833333333333334],[-0.06833333333333333],[1],[0],[0],[1.6901529379974818],['target'],38,0,38,0,60.23655037700155,,5,60.22731748200022,60.23655037700155,60.23655037700155,0.014554412999132182,61.91786913300166,[0.17833333333333334],[-0.06833333333333333],[1],[0],[0],[1.6901529379974818],['target'],705599,001,2024-10-10_13h39.22.626,VISUALSEARCH,2024.2.1,None,2024-10-10 13h43.58.343800 +0530,
39,0,39,[-0.48833333333333334],[-0.12],[1],[0],[0],[1.7182829800003674],['target'],39,0,39,0,61.95911384500141,,10,61.944967647999874,61.95911384500141,61.95911384500141,0.026953677002893528,63.66366858800029,[-0.48833333333333334],[-0.12],[1],[0],[0],[1.7182829800003674],['target'],705599,001,2024-10-10_13h39.22.626,VISUALSEARCH,2024.2.1,None,2024-10-10 13h43.58.343800 +0530,
40,0,40,[0.145],[-0.155],[1],[0],[0],[1.1701412689981225],['target'],40,0,40,0,63.688801367999986,,5,63.67888304400185,63.688801367999986,63.688801367999986,0.01505391400132794,64.84954798900071,[0.145],[-0.155],[1],[0],[0],[1.1701412689981225],['target'],705599,001,2024-10-10_13h39.22.626,VISUALSEARCH,2024.2.1,None,2024-10-10 13h43.58.343800 +0530,
41,0,41,[-0.31],[-0.3233333333333333],[1],[0],[0],[1.1264280100003816],['target'],41,0,41,0,64.87391151699921,,5,64.86458127100195,64.87391151699921,64.87391151699921,0.014906997999787563,65.99142179599949,[-0.31],[-0.3233333333333333],[1],[0],[0],[1.1264280100003816],['target'],705599,001,2024-10-10_13h39.22.626,VISUALSEARCH,2024.2.1,None,2024-10-10 13h43.58.343800 +0530,
42,0,42,[-0.19],[0.09833333333333333],[1],[0],[0],[1.4528551920011523],['target'],42,0,42,0,66.01692406100119,,5,66.00663575200088,66.01692406100119,66.01692406100119,0.0150648929993622,67.45996191200175,[-0.19],[0.09833333333333333],[1],[0],[0],[1.4528551920011523],['target'],705599,001,2024-10-10_13h39.22.626,VISUALSEARCH,2024.2.1,None,2024-10-10 13h43.58.343800 +0530,
43,0,43,[-0.06],[0.38666666666666666],[1],[0],[0],[2.047046190000401],['target'],43,0,43,0,67.5022548220004,,10,67.48739050600125,67.5022548220004,67.5022548220004,0.027277278997644316,69.53484315099922,[-0.06],[0.38666666666666666],[1],[0],[0],[2.047046190000401],['target'],705599,001,2024-10-10_13h39.22.626,VISUALSEARCH,2024.2.1,None,2024-10-10 13h43.58.343800 +0530,
44,0,44,[0.10333333333333333],[-0.355],[1],[0],[0],[1.4452629829975194],['target'],44,0,44,0,69.5592192969998,,5,69.54957651199948,69.5592192969998,69.5592192969998,0.014576197001588298,70.99552033800137,[0.10333333333333333],[-0.355],[1],[0],[0],[1.4452629829975194],['target'],705599,001,2024-10-10_13h39.22.626,VISUALSEARCH,2024.2.1,None,2024-10-10 13h43.58.343800 +0530,
45,0,45,[0.22166666666666668],[-0.45],[1],[0],[0],[1.3351081279979553],['target'],45,0,45,0,71.03621921500235,,10,71.0224966909991,71.03621921500235,71.03621921500235,0.026845467000384815,72.35797734399966,[0.22166666666666668],[-0.45],[1],[0],[0],[1.3351081279979553],['target'],705599,001,2024-10-10_13h39.22.626,VISUALSEARCH,2024.2.1,None,2024-10-10 13h43.58.343800 +0530,
46,0,46,[-0.11333333333333333],[-0.34833333333333333],[1],[0],[0],[2.3130124579984113],['target'],46,0,46,0,72.39785504899919,,10,72.38474321000103,72.39785504899919,72.39785504899919,0.026617122999596177,74.6982516249991,[-0.11333333333333333],[-0.34833333333333333],[1],[0],[0],[2.3130124579984113],['target'],705599,001,2024-10-10_13h39.22.626,VISUALSEARCH,2024.2.1,None,2024-10-10 13h43.58.343800 +0530,
47,0,47,[-0.018333333333333333],[-0.22833333333333333],[1],[0],[0],[1.0730754920004983],['target'],47,0,47,0,74.72431389600024,,5,74.71319830500215,74.72431389600024,74.72431389600024,0.014779572000406915,75.78666310900007,[-0.018333333333333333],[-0.22833333333333333],[1],[0],[0],[1.0730754920004983],['target'],705599,001,2024-10-10_13h39.22.626,VISUALSEARCH,2024.2.1,None,2024-10-10 13h43.58.343800 +0530,
48,0,48,[-0.43666666666666665],[-0.25833333333333336],[1],[0],[0],[1.0423499749995244],['target'],48,0,48,0,75.81046055399929,,5,75.80089995600065,75.81046055399929,75.81046055399929,0.014107062001130544,76.84373042700099,[-0.43666666666666665],[-0.25833333333333336],[1],[0],[0],[1.0423499749995244],['target'],705599,001,2024-10-10_13h39.22.626,VISUALSEARCH,2024.2.1,None,2024-10-10 13h43.58.343800 +0530,
49,0,49,[0.275],[0.44166666666666665],[1],[0],[0],[1.768522292997659],['target'],49,0,49,0,76.86790905599992,,5,76.85782429900064,76.86790905599992,76.86790905599992,0.013930846002040198,78.62678029200106,[0.275],[0.44166666666666665],[1],[0],[0],[1.768522292997659],['target'],705599,001,2024-10-10_13h39.22.626,VISUALSEARCH,2024.2.1,None,2024-10-10 13h43.58.343800 +0530,
50,0,50,[-0.023333333333333334],[0.455],[1],[0],[0],[1.6789572130001034],['target'],50,0,50,0,78.65125379500023,,5,78.64213909099999,78.65125379500023,78.65125379500023,0.015220911998767406,80.32164157300213,[-0.023333333333333334],[0.455],[1],[0],[0],[1.6789572130001034],['target'],705599,001,2024-10-10_13h39.22.626,VISUALSEARCH,2024.2.1,None,2024-10-10 13h43.58.343800 +0530,
51,0,51,[-0.23333333333333334],[0.2683333333333333],[1],[0],[0],[1.0492827580019366],['target'],51,0,51,0,80.34755890000088,,5,80.337674598999,80.34755890000088,80.34755890000088,0.01586695199875976,81.38745343499977,[-0.23333333333333334],[0.2683333333333333],[1],[0],[0],[1.0492827580019366],['target'],705599,001,2024-10-10_13h39.22.626,VISUALSEARCH,2024.2.1,None,2024-10-10 13h43.58.343800 +0530,
52,0,52,[-0.35833333333333334],[-0.315],[1],[0],[0],[1.3863025240025308],['target'],52,0,52,0,81.41358169900195,,5,81.40411715400114,81.41358169900195,81.41358169900195,0.016539165000722278,82.7910188700007,[-0.35833333333333334],[-0.315],[1],[0],[0],[1.3863025240025308],['target'],705599,001,2024-10-10_13h39.22.626,VISUALSEARCH,2024.2.1,None,2024-10-10 13h43.58.343800 +0530,
53,0,53,[-0.335],[0.03],[1],[0],[0],[1.0875358109988156],['target'],53,0,53,0,82.8178199899994,,5,82.80881877399952,82.8178199899994,82.8178199899994,0.017492495997430524,83.89689926100255,[-0.335],[0.03],[1],[0],[0],[1.0875358109988156],['target'],705599,001,2024-10-10_13h39.22.626,VISUALSEARCH,2024.2.1,None,2024-10-10 13h43.58.343800 +0530,
54,0,54,[0.11],[0.355],[1],[0],[0],[1.2568071489986323],['target'],54,0,54,0,83.93992506200084,,10,83.92577780600186,83.93992506200084,83.93992506200084,0.028710943999612937,85.18298356200103,[0.11],[0.355],[1],[0],[0],[1.2568071489986323],['target'],705599,001,2024-10-10_13h39.22.626,VISUALSEARCH,2024.2.1,None,2024-10-10 13h43.58.343800 +0530,
55,0,55,[-0.21833333333333332],[-0.325],[1],[0],[0],[1.4889078680025705],['target'],55,0,55,0,85.20831929799897,,5,85.19762875900051,85.20831929799897,85.20831929799897,0.014480064000963466,86.6869454459993,[-0.21833333333333332],[-0.325],[1],[0],[0],[1.4889078680025705],['target'],705599,001,2024-10-10_13h39.22.626,VISUALSEARCH,2024.2.1,None,2024-10-10 13h43.58.343800 +0530,
56,0,56,[0.0],[-0.155],[1],[0],[0],[1.1048293260028004],['target'],56,0,56,0,86.73536905500077,,10,86.71962475699911,86.73536905500077,86.73536905500077,0.03250112900059321,87.82483643299929,[0.0],[-0.155],[1],[0],[0],[1.1048293260028004],['target'],705599,001,2024-10-10_13h39.22.626,VISUALSEARCH,2024.2.1,None,2024-10-10 13h43.58.343800 +0530,
57,0,57,[-0.06666666666666667],[-0.45166666666666666],[1],[0],[0],[2.38742694100074],['target'],57,0,57,0,87.86747876300069,,10,87.85217599899988,87.86747876300069,87.86747876300069,0.027177824998943834,90.23998216600012,[-0.06666666666666667],[-0.45166666666666666],[1],[0],[0],[2.38742694100074],['target'],705599,001,2024-10-10_13h39.22.626,VISUALSEARCH,2024.2.1,None,2024-10-10 13h43.58.343800 +0530,
58,0,58,[-0.25333333333333335],[0.21],[1],[0],[0],[1.4286794010004087],['target'],58,0,58,0,90.26611698800116,,5,90.25517052199939,90.26611698800116,90.26611698800116,0.015016836998256622,91.68433631500011,[-0.25333333333333335],[0.21],[1],[0],[0],[1.4286794010004087],['target'],705599,001,2024-10-10_13h39.22.626,VISUALSEARCH,2024.2.1,None,2024-10-10 13h43.58.343800 +0530,
59,0,59,[-0.3933333333333333],[-0.08333333333333333],[1],[0],[0],[1.1762727009991067],['target'],59,0,59,0,91.70725805099937,,5,91.69822068000212,91.70725805099937,91.70725805099937,0.013737373999902047,92.8750299730018,[-0.3933333333333333],[-0.08333333333333333],[1],[0],[0],[1.1762727009991067],['target'],705599,001,2024-10-10_13h39.22.626,VISUALSEARCH,2024.2.1,None,2024-10-10 13h43.58.343800 +0530,
60,0,60,[0.47333333333333333],[0.20333333333333334],[1],[0],[0],[1.799024953998014],['target'],60,0,60,0,92.91674304800108,,10,92.90279811400251,92.91674304800108,92.91674304800108,0.02754319499945268,94.70225071300229,[0.47333333333333333],[0.20333333333333334],[1],[0],[0],[1.799024953998014],['target'],705599,001,2024-10-10_13h39.22.626,VISUALSEARCH,2024.2.1,None,2024-10-10 13h43.58.343800 +0530,
61,0,61,[0.4266666666666667],[-0.023333333333333334],[1],[0],[0],[1.491832923002221],['target'],61,0,61,0,94.72707551900021,,5,94.71651780500179,94.72707551900021,94.72707551900021,0.014098779000050854,96.20873696200215,[0.4266666666666667],[-0.023333333333333334],[1],[0],[0],[1.491832923002221],['target'],705599,001,2024-10-10_13h39.22.626,VISUALSEARCH,2024.2.1,None,2024-10-10 13h43.58.343800 +0530,
62,0,62,[0.36833333333333335],[0.16166666666666665],[1],[0],[0],[1.1152595280000241],['target'],62,0,62,0,96.25059251900166,,10,96.2360008800024,96.25059251900166,96.25059251900166,0.02714179100075853,97.35169023799972,[0.36833333333333335],[0.16166666666666665],[1],[0],[0],[1.1152595280000241],['target'],705599,001,2024-10-10_13h39.22.626,VISUALSEARCH,2024.2.1,None,2024-10-10 13h43.58.343800 +0530,
63,0,63,[-0.26666666666666666],[-0.3016666666666667],[1],[0],[0],[1.525078434999159],['target'],63,0,63,0,97.37678402299935,,5,97.36641520199919,97.37678402299935,97.37678402299935,0.014524066999001661,98.89198318299896,[-0.26666666666666666],[-0.3016666666666667],[1],[0],[0],[1.525078434999159],['target'],705599,001,2024-10-10_13h39.22.626,VISUALSEARCH,2024.2.1,None,2024-10-10 13h43.58.343800 +0530,
64,0,64,[0.22833333333333333],[-0.475],[1],[0],[0],[1.715272671997809],['target'],64,0,64,0,98.93378804100212,,10,98.91948979399967,98.93378804100212,98.93378804100212,0.027376263002224732,100.6351749250025,[0.22833333333333333],[-0.475],[1],[0],[0],[1.715272671997809],['target'],705599,001,2024-10-10_13h39.22.626,VISUALSEARCH,2024.2.1,None,2024-10-10 13h43.58.343800 +0530,
65,0,65,[-0.04],[0.4533333333333333],[1],[0],[0],[1.4279454839997925],['target'],65,0,65,0,100.6597154930023,,5,100.6505390759994,100.6597154930023,100.6597154930023,0.01518690000011702,102.07938174599985,[-0.04],[0.4533333333333333],[1],[0],[0],[1.4279454839997925],['target'],705599,001,2024-10-10_13h39.22.626,VISUALSEARCH,2024.2.1,None,2024-10-10 13h43.58.343800 +0530,
66,0,66,[-0.4216666666666667],[-0.4066666666666667],[1],[0],[0],[2.2081068039988168],['target'],66,0,66,0,102.12057026000184,,10,102.10682991900103,102.12057026000184,102.12057026000184,0.027261913997790543,104.31552156399994,[-0.4216666666666667],[-0.4066666666666667],[1],[0],[0],[2.2081068039988168],['target'],705599,001,2024-10-10_13h39.22.626,VISUALSEARCH,2024.2.1,None,2024-10-10 13h43.58.343800 +0530,
67,0,67,[0.023333333333333334],[0.29833333333333334],[1],[0],[0],[1.1174782300004154],['target'],67,0,67,0,104.34191613400253,,5,104.33266478099904,104.34191613400253,104.34191613400253,0.01689914999951725,105.45063765799932,[0.023333333333333334],[0.29833333333333334],[1],[0],[0],[1.1174782300004154],['target'],705599,001,2024-10-10_13h39.22.626,VISUALSEARCH,2024.2.1,None,2024-10-10 13h43.58.343800 +0530,
68,0,68,[0.32666666666666666],[0.22833333333333333],[1],[0],[0],[0.9438796319991525],['target'],68,0,68,0,105.49292584100112,,10,105.4787710970013,105.49292584100112,105.49292584100112,0.028040934997989098,106.42309335000027,[0.32666666666666666],[0.22833333333333333],[1],[0],[0],[0.9438796319991525],['target'],705599,001,2024-10-10_13h39.22.626,VISUALSEARCH,2024.2.1,None,2024-10-10 13h43.58.343800 +0530,
69,0,69,[-0.26166666666666666],[0.46],[1],[0],[0],[1.3109341249983117],['target'],69,0,69,0,106.44844796100006,,5,106.43811617100073,106.44844796100006,106.44844796100006,0.014866912002617028,107.74953412000104,[-0.26166666666666666],[0.46],[1],[0],[0],[1.3109341249983117],['target'],705599,001,2024-10-10_13h39.22.626,VISUALSEARCH,2024.2.1,None,2024-10-10 13h43.58.343800 +0530,
70,0,70,[-0.31833333333333336],[-0.02],[1],[0],[0],[1.3575110330020834],['target'],70,0,70,0,107.77498612300042,,5,107.76449300700187,107.77498612300042,107.77498612300042,0.014831964999757474,109.12240207899958,[-0.31833333333333336],[-0.02],[1],[0],[0],[1.3575110330020834],['target'],705599,001,2024-10-10_13h39.22.626,VISUALSEARCH,2024.2.1,None,2024-10-10 13h43.58.343800 +0530,
71,0,71,[0.20833333333333334],[0.4683333333333333],[1],[0],[0],[1.354422866999812],['target'],71,0,71,0,109.16527893500097,,10,109.15130979300011,109.16527893500097,109.16527893500097,0.02878444199814112,110.50624878899907,[0.20833333333333334],[0.4683333333333333],[1],[0],[0],[1.354422866999812],['target'],705599,001,2024-10-10_13h39.22.626,VISUALSEARCH,2024.2.1,None,2024-10-10 13h43.58.343800 +0530,
72,0,72,[0.14],[-0.3616666666666667],[1],[0],[0],[1.7200179010033025],['target'],72,0,72,0,110.53073872499954,,5,110.52091506900251,110.53073872499954,110.53073872499954,0.014465057000052184,112.2413030989992,[0.14],[-0.3616666666666667],[1],[0],[0],[1.7200179010033025],['target'],705599,001,2024-10-10_13h39.22.626,VISUALSEARCH,2024.2.1,None,2024-10-10 13h43.58.343800 +0530,
73,0,73,[-0.008333333333333333],[0.43],[1],[0],[0],[1.8748044109997863],['target'],73,0,73,0,112.28333643899896,,10,112.27002769500177,112.28333643899896,112.28333643899896,0.02858702600133256,114.14536206400226,[-0.008333333333333333],[0.43],[1],[0],[0],[1.8748044109997863],['target'],705599,001,2024-10-10_13h39.22.626,VISUALSEARCH,2024.2.1,None,2024-10-10 13h43.58.343800 +0530,
74,0,74,[-0.023333333333333334],[-0.15333333333333332],[1],[0],[0],[1.1859358439978678],['target'],74,0,74,0,114.16965935700136,,5,114.16052315300112,114.16965935700136,114.16965935700136,0.015008039998065215,115.34698574399954,[-0.023333333333333334],[-0.15333333333333332],[1],[0],[0],[1.1859358439978678],['target'],705599,001,2024-10-10_13h39.22.626,VISUALSEARCH,2024.2.1,None,2024-10-10 13h43.58.343800 +0530,
75,0,75,[-0.30333333333333334],[-0.3566666666666667],[1],[0],[0],[2.6579502599997795],['target'],75,0,75,0,115.38978347800003,,10,115.3755609280015,115.38978347800003,115.38978347800003,0.0284259359978023,118.03388280999934,[-0.30333333333333334],[-0.3566666666666667],[1],[0],[0],[2.6579502599997795],['target'],705599,001,2024-10-10_13h39.22.626,VISUALSEARCH,2024.2.1,None,2024-10-10 13h43.58.343800 +0530,
76,0,76,[-0.4216666666666667],[-0.3333333333333333],[1],[0],[0],[1.2817574670007161],['target'],76,0,76,0,118.05961148700226,,5,118.0492257320002,118.05961148700226,118.05961148700226,0.015192508999462007,119.33153303500148,[-0.4216666666666667],[-0.3333333333333333],[1],[0],[0],[1.2817574670007161],['target'],705599,001,2024-10-10_13h39.22.626,VISUALSEARCH,2024.2.1,None,2024-10-10 13h43.58.343800 +0530,
77,0,77,[0.085],[0.275],[1],[0],[0],[1.3660669470009452],['target'],77,0,77,0,119.35545568300222,,5,119.346476480001,119.35545568300222,119.35545568300222,0.014815566999459406,120.7129252650011,[0.085],[0.275],[1],[0],[0],[1.3660669470009452],['target'],705599,001,2024-10-10_13h39.22.626,VISUALSEARCH,2024.2.1,None,2024-10-10 13h43.58.343800 +0530,
78,0,78,[0.275],[0.27166666666666667],[1],[0],[0],[1.0117297430006147],['target'],78,0,78,0,120.75543850599934,,10,120.74066344200037,120.75543850599934,120.75543850599934,0.02761945499878493,121.75293574100215,[0.275],[0.27166666666666667],[1],[0],[0],[1.0117297430006147],['target'],705599,001,2024-10-10_13h39.22.626,VISUALSEARCH,2024.2.1,None,2024-10-10 13h43.58.343800 +0530,
79,0,79,[-0.435],[-0.4533333333333333],[1],[0],[0],[2.293764068999735],['target'],79,0,79,0,121.77802004200203,,5,121.76776291400165,121.77802004200203,121.77802004200203,0.014573255000868812,124.06207250200168,[-0.435],[-0.4533333333333333],[1],[0],[0],[2.293764068999735],['target'],705599,001,2024-10-10_13h39.22.626,VISUALSEARCH,2024.2.1,None,2024-10-10 13h43.58.343800 +0530,
80,0,80,[0.27166666666666667],[-0.25166666666666665],[1],[0],[0],[1.270513765000942],['target'],80,0,80,0,124.08692500699908,,5,124.07678269399912,124.08692500699908,124.08692500699908,0.014584494001610437,125.34772237799916,[0.27166666666666667],[-0.25166666666666665],[1],[0],[0],[1.270513765000942],['target'],705599,001,2024-10-10_13h39.22.626,VISUALSEARCH,2024.2.1,None,2024-10-10 13h43.58.343800 +0530,
81,0,81,[-0.36333333333333334],[0.25166666666666665],[1],[0],[0],[1.4629898460007098],['target'],81,0,81,0,125.37114619100248,,5,125.36186904699935,125.37114619100248,125.37114619100248,0.014021381000929978,126.82524966100027,[-0.36333333333333334],[0.25166666666666665],[1],[0],[0],[1.4629898460007098],['target'],705599,001,2024-10-10_13h39.22.626,VISUALSEARCH,2024.2.1,None,2024-10-10 13h43.58.343800 +0530,
82,0,82,[0.0],[0.32666666666666666],[1],[0],[0],[1.0335663519981608],['target'],82,0,82,0,126.86531664400172,,10,126.85108506699908,126.86531664400172,126.86531664400172,0.025693814000987913,127.8851290010025,[0.0],[0.32666666666666666],[1],[0],[0],[1.0335663519981608],['target'],705599,001,2024-10-10_13h39.22.626,VISUALSEARCH,2024.2.1,None,2024-10-10 13h43.58.343800 +0530,
83,0,83,[-0.17333333333333334],[-0.22333333333333333],[1],[0],[0],[1.2449875689999317],['target'],83,0,83,0,127.90993284400247,,5,127.89962949400069,127.90993284400247,127.90993284400247,0.014324010997370351,129.14502628400078,[-0.17333333333333334],[-0.22333333333333333],[1],[0],[0],[1.2449875689999317],['target'],705599,001,2024-10-10_13h39.22.626,VISUALSEARCH,2024.2.1,None,2024-10-10 13h43.58.343800 +0530,
84,0,84,[0.16333333333333333],[-0.2816666666666667],[1],[0],[0],[0.9501116289975471],['target'],84,0,84,0,129.18547071400099,,10,129.17126812800052,129.18547071400099,129.18547071400099,0.026120446000277298,130.12182671700066,[0.16333333333333333],[-0.2816666666666667],[1],[0],[0],[0.9501116289975471],['target'],705599,001,2024-10-10_13h39.22.626,VISUALSEARCH,2024.2.1,None,2024-10-10 13h43.58.343800 +0530,
85,0,85,[0.19],[0.39666666666666667],[1],[0],[0],[1.2538491399973282],['target'],85,0,85,0,130.14630832900002,,5,130.13599707600224,130.14630832900002,130.14630832900002,0.014000658000441035,131.39024047400017,[0.19],[0.39666666666666667],[1],[0],[0],[1.2538491399973282],['target'],705599,001,2024-10-10_13h39.22.626,VISUALSEARCH,2024.2.1,None,2024-10-10 13h43.58.343800 +0530,
86,0,86,[-0.36333333333333334],[-0.21833333333333332],[1],[0],[0],[1.5087742189971323],['target'],86,0,86,0,131.4151031399997,,5,131.40514551500019,131.4151031399997,131.4151031399997,0.014752921000763308,132.9143715329992,[-0.36333333333333334],[-0.21833333333333332],[1],[0],[0],[1.5087742189971323],['target'],705599,001,2024-10-10_13h39.22.626,VISUALSEARCH,2024.2.1,None,2024-10-10 13h43.58.343800 +0530,
87,0,87,[-0.07333333333333333],[0.04],[1],[0],[0],[2.6042604070025845],['target'],87,0,87,0,132.95497318200069,,10,132.94039448200056,132.95497318200069,132.95497318200069,0.025887643998430576,135.5450727560019,[-0.07333333333333333],[0.04],[1],[0],[0],[2.6042604070025845],['target'],705599,001,2024-10-10_13h39.22.626,VISUALSEARCH,2024.2.1,None,2024-10-10 13h43.58.343800 +0530,
88,0,88,[-0.44333333333333336],[-0.26666666666666666],[1],[0],[0],[1.9445059029967524],['target'],88,0,88,0,135.58680577799896,,10,135.57219011599955,135.58680577799896,135.58680577799896,0.02688728100110893,137.5173559370014,[-0.44333333333333336],[-0.26666666666666666],[1],[0],[0],[1.9445059029967524],['target'],705599,001,2024-10-10_13h39.22.626,VISUALSEARCH,2024.2.1,None,2024-10-10 13h43.58.343800 +0530,
89,0,89,[-0.13333333333333333],[0.08166666666666667],[1],[0],[0],[1.2216424649996043],['target'],89,0,89,0,137.54050941999958,,5,137.5311775830014,137.54050941999958,137.54050941999958,0.01361541599908378,138.75322170900108,[-0.13333333333333333],[0.08166666666666667],[1],[0],[0],[1.2216424649996043],['target'],705599,001,2024-10-10_13h39.22.626,VISUALSEARCH,2024.2.1,None,2024-10-10 13h43.58.343800 +0530,
90,0,90,[0.06666666666666667],[0.365],[1],[0],[0],[0.9176674719965376],['target'],90,0,90,0,138.77693428000202,,5,138.7676760510003,138.77693428000202,138.77693428000202,0.014311926999653224,139.68583257200225,[0.06666666666666667],[0.365],[1],[0],[0],[0.9176674719965376],['target'],705599,001,2024-10-10_13h39.22.626,VISUALSEARCH,2024.2.1,None,2024-10-10 13h43.58.343800 +0530,
91,0,91,[-0.12],[0.17333333333333334],[1],[0],[0],[1.2793547890032642],['target'],91,0,91,0,139.72775703099978,,10,139.71395960399968,139.72775703099978,139.72775703099978,0.027975772001809673,140.9937908230022,[-0.12],[0.17333333333333334],[1],[0],[0],[1.2793547890032642],['target'],705599,001,2024-10-10_13h39.22.626,VISUALSEARCH,2024.2.1,None,2024-10-10 13h43.58.343800 +0530,
92,0,92,[-0.31166666666666665],[-0.36666666666666664],[1],[0],[0],[1.6266579719995207],['target'],92,0,92,0,141.0360101139995,,10,141.0220908880001,141.0360101139995,141.0360101139995,0.02814294200288714,142.64916162400186,[-0.31166666666666665],[-0.36666666666666664],[1],[0],[0],[1.6266579719995207],['target'],705599,001,2024-10-10_13h39.22.626,VISUALSEARCH,2024.2.1,None,2024-10-10 13h43.58.343800 +0530,
93,0,93,[0.155],[-0.23166666666666666],[1],[0],[0],[2.654299716999958],['target'],93,0,93,0,142.69107140100095,,10,142.67665035200116,142.69107140100095,142.69107140100095,0.027329760003340198,145.33145507299923,[0.155],[-0.23166666666666666],[1],[0],[0],[2.654299716999958],['target'],705599,001,2024-10-10_13h39.22.626,VISUALSEARCH,2024.2.1,None,2024-10-10 13h43.58.343800 +0530,
94,0,94,[0.25166666666666665],[0.14166666666666666],[1],[0],[0],[1.175293453001359],['target'],94,0,94,0,145.35574103100225,,5,145.34579245200075,145.35574103100225,145.35574103100225,0.014174603998981183,146.52152780799952,[0.25166666666666665],[0.14166666666666666],[1],[0],[0],[1.175293453001359],['target'],705599,001,2024-10-10_13h39.22.626,VISUALSEARCH,2024.2.1,None,2024-10-10 13h43.58.343800 +0530,
95,0,95,[-0.485],[-0.051666666666666666],[1],[0],[0],[1.6682033600009163],['target'],95,0,95,0,146.54559056500148,,5,146.53570078399935,146.54559056500148,146.54559056500148,0.014049396999325836,148.2043267270019,[-0.485],[-0.051666666666666666],[1],[0],[0],[1.6682033600009163],['target'],705599,001,2024-10-10_13h39.22.626,VISUALSEARCH,2024.2.1,None,2024-10-10 13h43.58.343800 +0530,
96,0,96,[0.27],[0.45],[1],[0],[0],[2.9000082359998487],['target'],96,0,96,0,148.2453259239992,,10,148.2319643640003,148.2453259239992,148.2453259239992,0.027514895002241246,151.13250621100087,[0.27],[0.45],[1],[0],[0],[2.9000082359998487],['target'],705599,001,2024-10-10_13h39.22.626,VISUALSEARCH,2024.2.1,None,2024-10-10 13h43.58.343800 +0530,
97,0,97,[-0.17],[0.465],[1],[0],[0],[2.3623998109978857],['target'],97,0,97,0,151.15705641500244,,5,151.14670222600034,151.15705641500244,151.15705641500244,0.0140281669991964,153.509856339002,[-0.17],[0.465],[1],[0],[0],[2.3623998109978857],['target'],705599,001,2024-10-10_13h39.22.626,VISUALSEARCH,2024.2.1,None,2024-10-10 13h43.58.343800 +0530,
98,0,98,[0.23333333333333334],[-0.2633333333333333],[1],[0],[0],[1.6176253870034998],['target'],98,0,98,0,153.53435978900234,,5,153.52398909100157,153.53435978900234,153.53435978900234,0.013964898000267567,155.14215255900126,[0.23333333333333334],[-0.2633333333333333],[1],[0],[0],[1.6176253870034998],['target'],705599,001,2024-10-10_13h39.22.626,VISUALSEARCH,2024.2.1,None,2024-10-10 13h43.58.343800 +0530,
99,0,99,[-0.44666666666666666],[-0.2966666666666667],[1],[0],[0],[1.6000768509984482],['target'],99,0,99,0,155.18271668300076,,10,155.16866764400038,155.18271668300076,155.18271668300076,0.026388219997897977,156.7692000749994,[-0.44666666666666666],[-0.2966666666666667],[1],[0],[0],[1.6000768509984482],['target'],705599,001,2024-10-10_13h39.22.626,VISUALSEARCH,2024.2.1,None,2024-10-10 13h43.58.343800 +0530,
100,0,100,[-0.02666666666666667],[-0.38166666666666665],[1],[0],[0],[1.3690802860000986],['target'],100,0,100,0,156.79276483899957,,5,156.7831483100017,156.79276483899957,156.79276483899957,0.013797603998682462,158.1526806050024,[-0.02666666666666667],[-0.38166666666666665],[1],[0],[0],[1.3690802860000986],['target'],705599,001,2024-10-10_13h39.22.626,VISUALSEARCH,2024.2.1,None,2024-10-10 13h43.58.343800 +0530,
101,0,101,[0.19833333333333333],[-0.006666666666666667],[1],[0],[0],[1.0596946320001734],['target'],101,0,101,0,158.19317153900192,,10,158.17985291600053,158.19317153900192,158.19317153900192,0.027036749001126736,159.2401058989999,[0.19833333333333333],[-0.006666666666666667],[1],[0],[0],[1.0596946320001734],['target'],705599,001,2024-10-10_13h39.22.626,VISUALSEARCH,2024.2.1,None,2024-10-10 13h43.58.343800 +0530,
102,0,102,[-0.051666666666666666],[0.4533333333333333],[1],[0],[0],[1.4795339750016865],['target'],102,0,102,0,159.26508076699974,,5,159.2553791600003,159.26508076699974,159.26508076699974,0.015116396996745607,160.73532964200058,[-0.051666666666666666],[0.4533333333333333],[1],[0],[0],[1.4795339750016865],['target'],705599,001,2024-10-10_13h39.22.626,VISUALSEARCH,2024.2.1,None,2024-10-10 13h43.58.343800 +0530,
103,0,103,[-0.31],[0.45166666666666666],[1],[0],[0],[1.7416272460031905],['target'],103,0,103,0,160.77758935300153,,10,160.7629267609991,160.77758935300153,160.77758935300153,0.02750848900177516,162.50490810400152,[-0.31],[0.45166666666666666],[1],[0],[0],[1.7416272460031905],['target'],705599,001,2024-10-10_13h39.22.626,VISUALSEARCH,2024.2.1,None,2024-10-10 13h43.58.343800 +0530,
104,0,104,[0.255],[0.445],[1],[0],[0],[1.7036521189984342],['target'],104,0,104,0,162.5287867299994,,5,162.51973124299911,162.5287867299994,162.5287867299994,0.014661220000562025,164.2239890000019,[0.255],[0.445],[1],[0],[0],[1.7036521189984342],['target'],705599,001,2024-10-10_13h39.22.626,VISUALSEARCH,2024.2.1,None,2024-10-10 13h43.58.343800 +0530,
105,0,105,[-0.16],[-0.18],[1],[0],[0],[1.7642115269991336],['target'],105,0,105,0,164.26531960799912,,10,164.25090458699924,164.26531960799912,164.26531960799912,0.026762636000057682,166.01582751200112,[-0.16],[-0.18],[1],[0],[0],[1.7642115269991336],['target'],705599,001,2024-10-10_13h39.22.626,VISUALSEARCH,2024.2.1,None,2024-10-10 13h43.58.343800 +0530,
106,0,106,[-0.33166666666666667],[-0.08333333333333333],[1],[0],[0],[1.3949341610023112],['target'],106,0,106,0,166.0577750550001,,10,166.04283884600227,166.0577750550001,166.0577750550001,0.026819042999704834,167.43849129299997,[-0.33166666666666667],[-0.08333333333333333],[1],[0],[0],[1.3949341610023112],['target'],705599,001,2024-10-10_13h39.22.626,VISUALSEARCH,2024.2.1,None,2024-10-10 13h43.58.343800 +0530,
107,0,107,[0.008333333333333333],[0.16833333333333333],[1],[0],[0],[1.299360858],['target'],107,0,107,0,167.46332509900094,,5,167.4525875770014,167.46332509900094,167.46332509900094,0.013931063000200083,168.75252233900028,[0.008333333333333333],[0.16833333333333333],[1],[0],[0],[1.299360858],['target'],705599,001,2024-10-10_13h39.22.626,VISUALSEARCH,2024.2.1,None,2024-10-10 13h43.58.343800 +0530,
108,0,108,[-0.2],[0.36666666666666664],[1],[0],[0],[1.6109342460003973],['target'],108,0,108,0,168.77702640600182,,5,168.76684187200226,168.77702640600182,168.77702640600182,0.014187887998559745,170.37822686900108,[-0.2],[0.36666666666666664],[1],[0],[0],[1.6109342460003973],['target'],705599,001,2024-10-10_13h39.22.626,VISUALSEARCH,2024.2.1,None,2024-10-10 13h43.58.343800 +0530,
109,0,109,[0.105],[-0.235],[1],[0],[0],[1.6850869380032236],['target'],109,0,109,0,170.42015396200077,,10,170.40570489799939,170.42015396200077,170.42015396200077,0.02733687500222004,172.09155427400037,[0.105],[-0.235],[1],[0],[0],[1.6850869380032236],['target'],705599,001,2024-10-10_13h39.22.626,VISUALSEARCH,2024.2.1,None,2024-10-10 13h43.58.343800 +0530,
110,0,110,[-0.41],[0.4716666666666667],[1],[0],[0],[3.308026949001942],['target'],110,0,110,0,172.14236821799932,,10,172.12497435300247,172.14236821799932,172.14236821799932,0.033171904000482755,175.4335631210015,[-0.41],[0.4716666666666667],[1],[0],[0],[3.308026949001942],['target'],705599,001,2024-10-10_13h39.22.626,VISUALSEARCH,2024.2.1,None,2024-10-10 13h43.58.343800 +0530,
111,0,111,[0.27166666666666667],[-0.018333333333333333],[1],[0],[0],[1.466644771000574],['target'],111,0,111,0,175.47640759700153,,10,175.4620014710017,175.47640759700153,175.47640759700153,0.02828945399960503,176.92906848500206,[0.27166666666666667],[-0.018333333333333333],[1],[0],[0],[1.466644771000574],['target'],705599,001,2024-10-10_13h39.22.626,VISUALSEARCH,2024.2.1,None,2024-10-10 13h43.58.343800 +0530,
112,0,112,[0.021666666666666667],[-0.24833333333333332],[1],[0],[0],[1.3506933310018212],['target'],112,0,112,0,176.95344334200126,,5,176.94387796000228,176.95344334200126,176.95344334200126,0.01464955600022222,178.29507211800228,[0.021666666666666667],[-0.24833333333333332],[1],[0],[0],[1.3506933310018212],['target'],705599,001,2024-10-10_13h39.22.626,VISUALSEARCH,2024.2.1,None,2024-10-10 13h43.58.343800 +0530,
113,0,113,[-0.43333333333333335],[0.15666666666666668],[1],[0],[0],[1.2422593889968994],['target'],113,0,113,0,178.31988263099993,,5,178.30978534699898,178.31988263099993,178.31988263099993,0.014576629000657704,179.55261399600204,[-0.43333333333333335],[0.15666666666666668],[1],[0],[0],[1.2422593889968994],['target'],705599,001,2024-10-10_13h39.22.626,VISUALSEARCH,2024.2.1,None,2024-10-10 13h43.58.343800 +0530,
114,0,114,[0.23666666666666666],[-0.13],[1],[0],[0],[1.3293946129997494],['target'],114,0,114,0,179.57630411799983,,5,179.5669387980015,179.57630411799983,179.57630411799983,0.014200985999195836,180.89670526999907,[0.23666666666666666],[-0.13],[1],[0],[0],[1.3293946129997494],['target'],705599,001,2024-10-10_13h39.22.626,VISUALSEARCH,2024.2.1,None,2024-10-10 13h43.58.343800 +0530,
115,0,115,[-0.43333333333333335],[0.4683333333333333],[1],[0],[0],[1.5358004480003729],['target'],115,0,115,0,180.93822736600123,,10,180.92369545800102,180.93822736600123,180.93822736600123,0.02687036099814577,182.45993079600157,[-0.43333333333333335],[0.4683333333333333],[1],[0],[0],[1.5358004480003729],['target'],705599,001,2024-10-10_13h39.22.626,VISUALSEARCH,2024.2.1,None,2024-10-10 13h43.58.343800 +0530,
116,0,116,[0.38666666666666666],[0.20666666666666667],[1],[0],[0],[2.203884686998208],['target'],116,0,116,0,182.50267646700013,,10,182.48731380699974,182.50267646700013,182.50267646700013,0.027230350002355408,184.69175282400101,[0.38666666666666666],[0.20666666666666667],[1],[0],[0],[2.203884686998208],['target'],705599,001,2024-10-10_13h39.22.626,VISUALSEARCH,2024.2.1,None,2024-10-10 13h43.58.343800 +0530,
117,0,117,[0.0033333333333333335],[0.46],[1],[0],[0],[1.6579220390012779],[None],117,0,117,0,184.7341358220001,,10,184.7193786429998,184.7341358220001,184.7341358220001,0.02747447500223643,186.3779960890024,[0.0033333333333333335],[0.46],[1],[0],[0],[1.6579220390012779],[None],705599,001,2024-10-10_13h39.22.626,VISUALSEARCH,2024.2.1,None,2024-10-10 13h43.58.343800 +0530,
118,0,118,[-0.4],[0.22833333333333333],[1],[0],[0],[1.2629181230004178],['target'],118,0,118,0,186.40623165000216,,5,186.39507464100097,186.40623165000216,186.40623165000216,0.016854731999046635,187.65842752500248,[-0.4],[0.22833333333333333],[1],[0],[0],[1.2629181230004178],['target'],705599,001,2024-10-10_13h39.22.626,VISUALSEARCH,2024.2.1,None,2024-10-10 13h43.58.343800 +0530,
119,0,119,[-0.011666666666666667],[0.06833333333333333],[1],[0],[0],[2.122712460000912],['target'],119,0,119,0,187.69968111300113,,10,187.68568763599978,187.69968111300113,187.69968111300113,0.02713482899707742,189.80898814800094,[-0.011666666666666667],[0.06833333333333333],[1],[0],[0],[2.122712460000912],['target'],705599,001,2024-10-10_13h39.22.626,VISUALSEARCH,2024.2.1,None,2024-10-10 13h43.58.343800 +0530,
120,0,120,[0.35333333333333333],[-0.105],[1],[0],[0],[2.3791508689973853],['target'],120,0,120,0,189.85013145099947,,10,189.83596558299905,189.85013145099947,189.85013145099947,0.026837979999982053,192.21555610799987,[0.35333333333333333],[-0.105],[1],[0],[0],[2.3791508689973853],['target'],705599,001,2024-10-10_13h39.22.626,VISUALSEARCH,2024.2.1,None,2024-10-10 13h43.58.343800 +0530,
121,0,121,[0.405],[-0.23333333333333334],[1],[0],[0],[1.2256523670002935],['target'],121,0,121,0,192.23987251700237,,5,192.23039113699997,192.23987251700237,192.23987251700237,0.014664709000498988,193.45644135300245,[0.405],[-0.23333333333333334],[1],[0],[0],[1.2256523670002935],['target'],705599,001,2024-10-10_13h39.22.626,VISUALSEARCH,2024.2.1,None,2024-10-10 13h43.58.343800 +0530,
122,0,122,[0.051666666666666666],[0.2733333333333333],[1],[0],[0],[1.3763420230025076],['target'],122,0,122,0,193.4816489090008,,5,193.47129841599963,193.4816489090008,193.4816489090008,0.014731464001670247,194.84814746800112,[0.051666666666666666],[0.2733333333333333],[1],[0],[0],[1.3763420230025076],['target'],705599,001,2024-10-10_13h39.22.626,VISUALSEARCH,2024.2.1,None,2024-10-10 13h43.58.343800 +0530,
123,0,123,[0.37833333333333335],[0.03833333333333333],[1],[0],[0],[1.1389012789986737],['target'],123,0,123,0,194.88966634100143,,10,194.87507519800056,194.88966634100143,194.88966634100143,0.02680141499877209,196.01447765299963,[0.37833333333333335],[0.03833333333333333],[1],[0],[0],[1.1389012789986737],['target'],705599,001,2024-10-10_13h39.22.626,VISUALSEARCH,2024.2.1,None,2024-10-10 13h43.58.343800 +0530,
124,0,124,[0.37666666666666665],[-0.055],[1],[0],[0],[2.645746941998368],['target'],124,0,124,0,196.05724745100088,,10,196.04267025399895,196.05724745100088,196.05724745100088,0.028032827001879923,198.6888072670008,[0.37666666666666665],[-0.055],[1],[0],[0],[2.645746941998368],['target'],705599,001,2024-10-10_13h39.22.626,VISUALSEARCH,2024.2.1,None,2024-10-10 13h43.58.343800 +0530,
125,0,125,[0.33],[-0.36333333333333334],[1],[0],[0],[1.4829681209994305],['target'],125,0,125,0,198.73091380100232,,10,198.71620195099968,198.73091380100232,198.73091380100232,0.027248287999100285,200.19957347500167,[0.33],[-0.36333333333333334],[1],[0],[0],[1.4829681209994305],['target'],705599,001,2024-10-10_13h39.22.626,VISUALSEARCH,2024.2.1,None,2024-10-10 13h43.58.343800 +0530,
126,0,126,[0.485],[-0.15333333333333332],[1],[0],[0],[1.46879149200322],['target'],126,0,126,0,200.22390269099924,,5,200.21368082200206,200.22390269099924,200.22390269099924,0.013955010002973722,201.68291931800195,[0.485],[-0.15333333333333332],[1],[0],[0],[1.46879149200322],['target'],705599,001,2024-10-10_13h39.22.626,VISUALSEARCH,2024.2.1,None,2024-10-10 13h43.58.343800 +0530,
127,0,127,[-0.13666666666666666],[0.3566666666666667],[1],[0],[0],[1.2849055810002028],['target'],127,0,127,0,201.70735391900234,,5,201.6970074359997,201.70735391900234,201.70735391900234,0.013947269002528628,202.98233668600005,[-0.13666666666666666],[0.3566666666666667],[1],[0],[0],[1.2849055810002028],['target'],705599,001,2024-10-10_13h39.22.626,VISUALSEARCH,2024.2.1,None,2024-10-10 13h43.58.343800 +0530,
128,0,128,[0.07166666666666667],[-0.28],[1],[0],[0],[1.5804367679993447],['target'],128,0,128,0,203.02411976000076,,10,203.01032848500108,203.02411976000076,203.02411976000076,0.027802264998172177,204.5912778560014,[0.07166666666666667],[-0.28],[1],[0],[0],[1.5804367679993447],['target'],705599,001,2024-10-10_13h39.22.626,VISUALSEARCH,2024.2.1,None,2024-10-10 13h43.58.343800 +0530,
129,0,129,[0.48833333333333334],[-0.275],[1],[0],[0],[1.176997537000716],['target'],129,0,129,0,204.63234199900035,,10,204.61793712200233,204.63234199900035,204.63234199900035,0.026476545997866197,205.79553831000158,[0.48833333333333334],[-0.275],[1],[0],[0],[1.176997537000716],['target'],705599,001,2024-10-10_13h39.22.626,VISUALSEARCH,2024.2.1,None,2024-10-10 13h43.58.343800 +0530,
130,0,130,[0.30666666666666664],[0.23166666666666666],[1],[0],[0],[1.435744466001779],['target'],130,0,130,0,205.8200653999993,,5,205.80945962199985,205.8200653999993,205.8200653999993,0.013756058000581106,207.24560292000024,[0.30666666666666664],[0.23166666666666666],[1],[0],[0],[1.435744466001779],['target'],705599,001,2024-10-10_13h39.22.626,VISUALSEARCH,2024.2.1,None,2024-10-10 13h43.58.343800 +0530,
131,0,131,[-0.09],[0.3883333333333333],[1],[0],[0],[1.0967802720006148],['target'],131,0,131,0,207.2881071820011,,10,207.27361374099928,207.2881071820011,207.2881071820011,0.027889084001799347,208.37078091299918,[-0.09],[0.3883333333333333],[1],[0],[0],[1.0967802720006148],['target'],705599,001,2024-10-10_13h39.22.626,VISUALSEARCH,2024.2.1,None,2024-10-10 13h43.58.343800 +0530,
132,0,132,[-0.11666666666666667],[-0.41833333333333333],[1],[0],[0],[1.8558650790000684],['target'],132,0,132,0,208.41456147600184,,10,208.40017442200042,208.41456147600184,208.41456147600184,0.029246564001368824,210.2564902640006,[-0.11666666666666667],[-0.41833333333333333],[1],[0],[0],[1.8558650790000684],['target'],705599,001,2024-10-10_13h39.22.626,VISUALSEARCH,2024.2.1,None,2024-10-10 13h43.58.343800 +0530,
133,0,133,[-0.28],[-0.25],[1],[0],[0],[1.2807827860015095],['target'],133,0,133,0,210.2814226900009,,5,210.27174627800196,210.2814226900009,210.2814226900009,0.015104827001778176,211.5530119649993,[-0.28],[-0.25],[1],[0],[0],[1.2807827860015095],['target'],705599,001,2024-10-10_13h39.22.626,VISUALSEARCH,2024.2.1,None,2024-10-10 13h43.58.343800 +0530,
134,0,134,[-0.03666666666666667],[0.4483333333333333],[1],[0],[0],[1.362882985999022],['target'],134,0,134,0,211.59449123000013,,10,211.58013834899975,211.59449123000013,211.59449123000013,0.027003450002666796,212.94360151500223,[-0.03666666666666667],[0.4483333333333333],[1],[0],[0],[1.362882985999022],['target'],705599,001,2024-10-10_13h39.22.626,VISUALSEARCH,2024.2.1,None,2024-10-10 13h43.58.343800 +0530,
135,0,135,[0.26166666666666666],[0.26],[1],[0],[0],[0.9632462619993021],['target'],135,0,135,0,212.96887025099932,,5,212.95847238200076,212.96887025099932,212.96887025099932,0.014712895001139259,213.92229399200005,[0.26166666666666666],[0.26],[1],[0],[0],[0.9632462619993021],['target'],705599,001,2024-10-10_13h39.22.626,VISUALSEARCH,2024.2.1,None,2024-10-10 13h43.58.343800 +0530,
136,0,136,[-0.03833333333333333],[0.26166666666666666],[1],[0],[0],[1.1330260100003215],['target'],136,0,136,0,213.96519415700095,,10,213.95081172999926,213.96519415700095,213.96519415700095,0.028379666000546422,215.08433134500228,[-0.03833333333333333],[0.26166666666666666],[1],[0],[0],[1.1330260100003215],['target'],705599,001,2024-10-10_13h39.22.626,VISUALSEARCH,2024.2.1,None,2024-10-10 13h43.58.343800 +0530,
137,0,137,[0.37833333333333335],[-0.15166666666666667],[1],[0],[0],[1.980202430000645],['target'],137,0,137,0,215.10916278900186,,5,215.09969209100018,215.10916278900186,215.10916278900186,0.01522808099980466,217.08043463600188,[0.37833333333333335],[-0.15166666666666667],[1],[0],[0],[1.980202430000645],['target'],705599,001,2024-10-10_13h39.22.626,VISUALSEARCH,2024.2.1,None,2024-10-10 13h43.58.343800 +0530,
138,0,138,[-0.4583333333333333],[-0.2633333333333333],[1],[0],[0],[1.7276877570002398],['target'],138,0,138,0,217.1042724430008,,5,217.09426925200023,217.1042724430008,217.1042724430008,0.013711182000406552,218.8224843120006,[-0.4583333333333333],[-0.2633333333333333],[1],[0],[0],[1.7276877570002398],['target'],705599,001,2024-10-10_13h39.22.626,VISUALSEARCH,2024.2.1,None,2024-10-10 13h43.58.343800 +0530,
139,0,139,[-0.44666666666666666],[-0.17],[1],[0],[0],[1.554478886002471],['target'],139,0,139,0,218.84824783600197,,5,218.8381635879996,218.84824783600197,218.84824783600197,0.015505261999351205,220.39340436299972,[-0.44666666666666666],[-0.17],[1],[0],[0],[1.554478886002471],['target'],705599,001,2024-10-10_13h39.22.626,VISUALSEARCH,2024.2.1,None,2024-10-10 13h43.58.343800 +0530,
140,0,140,[-0.06166666666666667],[0.45166666666666666],[1],[0],[0],[2.0582250660008867],['target'],140,0,140,0,220.41974017300163,,5,220.40953294700012,220.41974017300163,220.41974017300163,0.01586018699890701,222.46821070200167,[-0.06166666666666667],[0.45166666666666666],[1],[0],[0],[2.0582250660008867],['target'],705599,001,2024-10-10_13h39.22.626,VISUALSEARCH,2024.2.1,None,2024-10-10 13h43.58.343800 +0530,
141,0,141,[0.435],[0.28],[1],[0],[0],[1.3145626229998015],['target'],141,0,141,0,222.50916553199932,,10,222.4948645910008,222.50916553199932,222.50916553199932,0.02652156600015587,223.80995475700183,[0.435],[0.28],[1],[0],[0],[1.3145626229998015],['target'],705599,001,2024-10-10_13h39.22.626,VISUALSEARCH,2024.2.1,None,2024-10-10 13h43.58.343800 +0530,
142,0,142,[0.06333333333333334],[0.34833333333333333],[1],[0],[0],[0.9649489529983839],['target'],142,0,142,0,223.83495977100029,,5,223.8248057640012,223.83495977100029,223.83495977100029,0.014700021001772257,224.79017122400182,[0.06333333333333334],[0.34833333333333333],[1],[0],[0],[0.9649489529983839],['target'],705599,001,2024-10-10_13h39.22.626,VISUALSEARCH,2024.2.1,None,2024-10-10 13h43.58.343800 +0530,
143,0,143,[-0.35333333333333333],[-0.33666666666666667],[1],[0],[0],[1.8154610069977934],['target'],143,0,143,0,224.81493937599953,,5,224.80467214000237,224.81493937599953,224.81493937599953,0.014371463999850675,226.62060988200028,[-0.35333333333333333],[-0.33666666666666667],[1],[0],[0],[1.8154610069977934],['target'],705599,001,2024-10-10_13h39.22.626,VISUALSEARCH,2024.2.1,None,2024-10-10 13h43.58.343800 +0530,
144,0,144,[-0.165],[-0.03166666666666667],[1],[0],[0],[1.537595510999381],['target'],144,0,144,0,226.645128174001,,5,226.6355481190003,226.645128174001,226.645128174001,0.014815541002462851,228.17373153399967,[-0.165],[-0.03166666666666667],[1],[0],[0],[1.537595510999381],['target'],705599,001,2024-10-10_13h39.22.626,VISUALSEARCH,2024.2.1,None,2024-10-10 13h43.58.343800 +0530,
145,0,145,[-0.025],[0.23333333333333334],[1],[0],[0],[1.1914947149998625],['target'],145,0,145,0,228.19991221300006,,5,228.18994283400025,228.19991221300006,228.19991221300006,0.016008209000574425,229.38195956300115,[-0.025],[0.23333333333333334],[1],[0],[0],[1.1914947149998625],['target'],705599,001,2024-10-10_13h39.22.626,VISUALSEARCH,2024.2.1,None,2024-10-10 13h43.58.343800 +0530,
146,0,146,[0.47333333333333333],[0.13833333333333334],[1],[0],[0],[1.4608822730006068],['target'],146,0,146,0,229.40794490900225,,5,229.39683641100055,229.40794490900225,229.40794490900225,0.014757313998416066,230.8582247350023,[0.47333333333333333],[0.13833333333333334],[1],[0],[0],[1.4608822730006068],['target'],705599,001,2024-10-10_13h39.22.626,VISUALSEARCH,2024.2.1,None,2024-10-10 13h43.58.343800 +0530,
147,0,147,[-0.135],[0.25833333333333336],[1],[0],[0],[1.63729998800045],['target'],147,0,147,0,230.89929097700224,,10,230.88515069999994,230.89929097700224,230.89929097700224,0.02677084099923377,232.52286500600167,[-0.135],[0.25833333333333336],[1],[0],[0],[1.63729998800045],['target'],705599,001,2024-10-10_13h39.22.626,VISUALSEARCH,2024.2.1,None,2024-10-10 13h43.58.343800 +0530,
148,0,148,[-0.2966666666666667],[0.18],[1],[0],[0],[1.0789434809994418],['target'],148,0,148,0,232.5470444470011,,5,232.5369387230021,232.5470444470011,232.5470444470011,0.01391522600169992,233.61657312600073,[-0.2966666666666667],[0.18],[1],[0],[0],[1.0789434809994418],['target'],705599,001,2024-10-10_13h39.22.626,VISUALSEARCH,2024.2.1,None,2024-10-10 13h43.58.343800 +0530,
149,0,149,[0.21166666666666667],[-0.3333333333333333],[1],[0],[0],[1.4724316920001002],['target'],149,0,149,0,233.64362785100093,,5,233.63361648000136,233.64362785100093,233.64362785100093,0.016877445003046887,235.10661744900062,[0.21166666666666667],[-0.3333333333333333],[1],[0],[0],[1.4724316920001002],['target'],705599,001,2024-10-10_13h39.22.626,VISUALSEARCH,2024.2.1,None,2024-10-10 13h43.58.343800 +0530,
150,0,150,[0.47],[0.17166666666666666],[1],[0],[0],[1.2735102509977878],['target'],150,0,150,0,235.13538129600056,,5,235.12393766099922,235.13538129600056,235.13538129600056,0.017115172999183415,236.39793793699937,[0.47],[0.17166666666666666],[1],[0],[0],[1.2735102509977878],['target'],705599,001,2024-10-10_13h39.22.626,VISUALSEARCH,2024.2.1,None,2024-10-10 13h43.58.343800 +0530,
151,0,151,[0.325],[0.18166666666666667],[1],[0],[0],[1.0430947580025531],['target'],151,0,151,0,236.42382383600125,,5,236.41324797100242,236.42382383600125,236.42382383600125,0.015162384002906037,237.45679701600238,[0.325],[0.18166666666666667],[1],[0],[0],[1.0430947580025531],['target'],705599,001,2024-10-10_13h39.22.626,VISUALSEARCH,2024.2.1,None,2024-10-10 13h43.58.343800 +0530,
152,0,152,[-0.16833333333333333],[0.115],[1],[0],[0],[1.243364459998702],['target'],152,0,152,0,237.48182734299917,,5,237.47246991499924,237.48182734299917,237.48182734299917,0.015509881999605568,238.71624412800156,[-0.16833333333333333],[0.115],[1],[0],[0],[1.243364459998702],['target'],705599,001,2024-10-10_13h39.22.626,VISUALSEARCH,2024.2.1,None,2024-10-10 13h43.58.343800 +0530,
153,0,153,[0.3566666666666667],[0.023333333333333334],[1],[0],[0],[1.2301536359991587],['target'],153,0,153,0,238.74013781599933,,5,238.7305573449994,238.74013781599933,238.74013781599933,0.014194327999575762,239.96108888100207,[0.3566666666666667],[0.023333333333333334],[1],[0],[0],[1.2301536359991587],['target'],705599,001,2024-10-10_13h39.22.626,VISUALSEARCH,2024.2.1,None,2024-10-10 13h43.58.343800 +0530,
154,0,154,[0.4683333333333333],[-0.21333333333333335],[1],[0],[0],[1.7876155319972895],['target'],154,0,154,0,240.00456511000084,,10,239.9887627900025,240.00456511000084,240.00456511000084,0.027546450000954792,241.77684677400248,[0.4683333333333333],[-0.21333333333333335],[1],[0],[0],[1.7876155319972895],['target'],705599,001,2024-10-10_13h39.22.626,VISUALSEARCH,2024.2.1,None,2024-10-10 13h43.58.343800 +0530,
155,0,155,[0.09833333333333333],[-0.08],[1],[0],[0],[1.0661671989983006],['target'],155,0,155,0,241.80178300999978,,5,241.7916000030018,241.80178300999978,241.80178300999978,0.01460218200008967,242.8581964110017,[0.09833333333333333],[-0.08],[1],[0],[0],[1.0661671989983006],['target'],705599,001,2024-10-10_13h39.22.626,VISUALSEARCH,2024.2.1,None,2024-10-10 13h43.58.343800 +0530,
156,0,156,[0.245],[-0.39166666666666666],[1],[0],[0],[1.8935721840025508],['target'],156,0,156,0,242.89914311400207,,10,242.88445685800252,242.89914311400207,242.89914311400207,0.026132282000617124,244.7784094660019,[0.245],[-0.39166666666666666],[1],[0],[0],[1.8935721840025508],['target'],705599,001,2024-10-10_13h39.22.626,VISUALSEARCH,2024.2.1,None,2024-10-10 13h43.58.343800 +0530,
157,0,157,[0.415],[-0.29],[1],[0],[0],[1.0516036250010075],['target'],157,0,157,0,244.80316913999923,,5,244.79351637400032,244.80316913999923,244.80316913999923,0.01495523899939144,245.84562423900206,[0.415],[-0.29],[1],[0],[0],[1.0516036250010075],['target'],705599,001,2024-10-10_13h39.22.626,VISUALSEARCH,2024.2.1,None,2024-10-10 13h43.58.343800 +0530,
158,0,158,[-0.165],[-0.27166666666666667],[1],[0],[0],[1.2996728809994238],['target'],158,0,158,0,245.88944170800096,,10,245.8747986590024,245.88944170800096,245.88944170800096,0.02905314800227643,247.17498547300056,[-0.165],[-0.27166666666666667],[1],[0],[0],[1.2996728809994238],['target'],705599,001,2024-10-10_13h39.22.626,VISUALSEARCH,2024.2.1,None,2024-10-10 13h43.58.343800 +0530,
159,0,159,[0.15333333333333332],[-0.44333333333333336],[1],[0],[0],[2.3592496940000274],['target'],159,0,159,0,247.21631660799903,,10,247.20231089600202,247.21631660799903,247.21631660799903,0.027167257001565304,249.56203902500056,[0.15333333333333332],[-0.44333333333333336],[1],[0],[0],[2.3592496940000274],['target'],705599,001,2024-10-10_13h39.22.626,VISUALSEARCH,2024.2.1,None,2024-10-10 13h43.58.343800 +0530,
160,0,160,[-0.21833333333333332],[-0.30666666666666664],[1],[0],[0],[2.5903949280000234],['target'],160,0,160,0,249.6066174330008,,10,249.59194714600017,249.6066174330008,249.6066174330008,0.029719939000642626,252.18279663700014,[-0.21833333333333332],[-0.30666666666666664],[1],[0],[0],[2.5903949280000234],['target'],705599,001,2024-10-10_13h39.22.626,VISUALSEARCH,2024.2.1,None,2024-10-10 13h43.58.343800 +0530,
161,0,161,[0.045],[0.195],[1],[0],[0],[1.2141022180003347],['target'],161,0,161,0,252.20824861800065,,5,252.19834006300152,252.20824861800065,252.20824861800065,0.015364435999799753,253.41302116800216,[0.045],[0.195],[1],[0],[0],[1.2141022180003347],['target'],705599,001,2024-10-10_13h39.22.626,VISUALSEARCH,2024.2.1,None,2024-10-10 13h43.58.343800 +0530,
162,0,162,[0.405],[0.14333333333333334],[1],[0],[0],[1.144155829999363],['target'],162,0,162,0,253.45503277399985,,10,253.4412004750011,253.45503277399985,253.45503277399985,0.02801582499887445,254.58587011000054,[0.405],[0.14333333333333334],[1],[0],[0],[1.144155829999363],['target'],705599,001,2024-10-10_13h39.22.626,VISUALSEARCH,2024.2.1,None,2024-10-10 13h43.58.343800 +0530,
163,0,163,[0.4866666666666667],[-0.24],[1],[0],[0],[1.4547407319987542],['target'],163,0,163,0,254.6138201290014,,5,254.6003683400013,254.6138201290014,254.6138201290014,0.014339486999233486,256.0555530140009,[0.4866666666666667],[-0.24],[1],[0],[0],[1.4547407319987542],['target'],705599,001,2024-10-10_13h39.22.626,VISUALSEARCH,2024.2.1,None,2024-10-10 13h43.58.343800 +0530,
164,0,164,[-0.145],[0.26666666666666666],[1],[0],[0],[1.3088815749979403],['target'],164,0,164,0,256.0962363889994,,10,256.081640643999,256.0962363889994,256.0962363889994,0.02596432100108359,257.39092781400177,[-0.145],[0.26666666666666666],[1],[0],[0],[1.3088815749979403],['target'],705599,001,2024-10-10_13h39.22.626,VISUALSEARCH,2024.2.1,None,2024-10-10 13h43.58.343800 +0530,
165,0,165,[0.14666666666666667],[0.01],[1],[0],[0],[1.8693055709991313],['target'],165,0,165,0,257.43261658900155,,10,257.418996411001,257.43261658900155,257.43261658900155,0.027900195000256645,259.2886946309991,[0.14666666666666667],[0.01],[1],[0],[0],[1.8693055709991313],['target'],705599,001,2024-10-10_13h39.22.626,VISUALSEARCH,2024.2.1,None,2024-10-10 13h43.58.343800 +0530,
166,0,166,[0.3],[-0.44333333333333336],[1],[0],[0],[2.674000593000528],['target'],166,0,166,0,259.33120954699916,,10,259.3166377100024,259.33120954699916,259.33120954699916,0.027789462001237553,261.99121554500016,[0.3],[-0.44333333333333336],[1],[0],[0],[2.674000593000528],['target'],705599,001,2024-10-10_13h39.22.626,VISUALSEARCH,2024.2.1,None,2024-10-10 13h43.58.343800 +0530,
167,0,167,[-0.013333333333333334],[0.2783333333333333],[1],[0],[0],[1.3322365339990938],['target'],167,0,167,0,262.0166796379999,,5,262.00601704400106,262.0166796379999,262.0166796379999,0.014632415997766657,263.33865011300077,[-0.013333333333333334],[0.2783333333333333],[1],[0],[0],[1.3322365339990938],['target'],705599,001,2024-10-10_13h39.22.626,VISUALSEARCH,2024.2.1,None,2024-10-10 13h43.58.343800 +0530,
168,0,168,[0.15166666666666667],[0.37],[1],[0],[0],[1.3162489460009965],['target'],168,0,168,0,263.38245325800017,,10,263.36800440300067,263.38245325800017,263.38245325800017,0.02922451400081627,264.6848064040023,[0.15166666666666667],[0.37],[1],[0],[0],[1.3162489460009965],['target'],705599,001,2024-10-10_13h39.22.626,VISUALSEARCH,2024.2.1,None,2024-10-10 13h43.58.343800 +0530,
169,0,169,[-0.37333333333333335],[0.21333333333333335],[1],[0],[0],[1.15171917400221],['target'],169,0,169,0,264.70786035900164,,5,264.69876225900225,264.70786035900164,264.70786035900164,0.013804168000206118,265.8510738389996,[-0.37333333333333335],[0.21333333333333335],[1],[0],[0],[1.15171917400221],['target'],705599,001,2024-10-10_13h39.22.626,VISUALSEARCH,2024.2.1,None,2024-10-10 13h43.58.343800 +0530,
170,0,170,[-0.3283333333333333],[-0.01],[1],[0],[0],[1.0296701830011443],['target'],170,0,170,0,265.8755203860019,,5,265.8659633850002,265.8755203860019,265.8755203860019,0.014763889001187636,266.896036088001,[-0.3283333333333333],[-0.01],[1],[0],[0],[1.0296701830011443],['target'],705599,001,2024-10-10_13h39.22.626,VISUALSEARCH,2024.2.1,None,2024-10-10 13h43.58.343800 +0530,
171,0,171,[0.2783333333333333],[0.4116666666666667],[1],[0],[0],[1.7080423870029335],['target'],171,0,171,0,266.92101972399905,,5,266.9103133770004,266.92101972399905,266.92101972399905,0.014129080998827703,268.6187381740019,[0.2783333333333333],[0.4116666666666667],[1],[0],[0],[1.7080423870029335],['target'],705599,001,2024-10-10_13h39.22.626,VISUALSEARCH,2024.2.1,None,2024-10-10 13h43.58.343800 +0530,
172,0,172,[-0.023333333333333334],[-0.36333333333333334],[1],[0],[0],[1.5419674559998384],['target'],172,0,172,0,268.6429194449993,,5,268.63250627800153,268.6429194449993,268.6429194449993,0.013644047998241149,270.1749845250015,[-0.023333333333333334],[-0.36333333333333334],[1],[0],[0],[1.5419674559998384],['target'],705599,001,2024-10-10_13h39.22.626,VISUALSEARCH,2024.2.1,None,2024-10-10 13h43.58.343800 +0530,
173,0,173,[0.41833333333333333],[-0.19833333333333333],[1],[0],[0],[1.885045078000985],['target'],173,0,173,0,270.19856263900147,,5,270.1892256530009,270.19856263900147,270.19856263900147,0.014119170999038033,272.0747559750016,[0.41833333333333333],[-0.19833333333333333],[1],[0],[0],[1.885045078000985],['target'],705599,001,2024-10-10_13h39.22.626,VISUALSEARCH,2024.2.1,None,2024-10-10 13h43.58.343800 +0530,
174,0,174,[-0.03666666666666667],[0.32166666666666666],[1],[0],[0],[1.9411208300007274],['target'],174,0,174,0,272.1002671060014,,5,272.09020680400135,272.1002671060014,272.1002671060014,0.015307420999306487,274.0318788629993,[-0.03666666666666667],[0.32166666666666666],[1],[0],[0],[1.9411208300007274],['target'],705599,001,2024-10-10_13h39.22.626,VISUALSEARCH,2024.2.1,None,2024-10-10 13h43.58.343800 +0530,
175,0,175,[-0.1],[0.16166666666666665],[1],[0],[0],[2.834728048001125],['target'],175,0,175,0,274.0734260140016,,10,274.05942580100236,274.0734260140016,274.0734260140016,0.02742201799992472,276.89457189300083,[-0.1],[0.16166666666666665],[1],[0],[0],[2.834728048001125],['target'],705599,001,2024-10-10_13h39.22.626,VISUALSEARCH,2024.2.1,None,2024-10-10 13h43.58.343800 +0530,
176,0,176,[-0.025],[-0.055],[1],[0],[0],[1.2542395119999128],['target'],176,0,176,0,276.9199986720014,,5,276.9093863859998,276.9199986720014,276.9199986720014,0.01465592999738874,278.16406316100256,[-0.025],[-0.055],[1],[0],[0],[1.2542395119999128],['target'],705599,001,2024-10-10_13h39.22.626,VISUALSEARCH,2024.2.1,None,2024-10-10 13h43.58.343800 +0530,
177,0,177,[-0.35333333333333333],[0.44],[1],[0],[0],[1.1978504969993082],['target'],177,0,177,0,278.18820236100146,,5,278.1780037230019,278.18820236100146,278.18820236100146,0.01379684499988798,279.3762364230024,[-0.35333333333333333],[0.44],[1],[0],[0],[1.1978504969993082],['target'],705599,001,2024-10-10_13h39.22.626,VISUALSEARCH,2024.2.1,None,2024-10-10 13h43.58.343800 +0530,
178,0,178,[-0.215],[0.2833333333333333],[1],[0],[0],[1.0288806629978353],['target'],178,0,178,0,279.41796783500104,,10,279.40337492000253,279.41796783500104,279.41796783500104,0.026998154000466457,280.43278170100166,[-0.215],[0.2833333333333333],[1],[0],[0],[1.0288806629978353],['target'],705599,001,2024-10-10_13h39.22.626,VISUALSEARCH,2024.2.1,None,2024-10-10 13h43.58.343800 +0530,
179,0,179,[0.22],[-0.20333333333333334],[1],[0],[0],[1.459760602996539],['target'],179,0,179,0,280.47575479700026,,10,280.4606431840002,280.47575479700026,280.47575479700026,0.027710592999937944,281.92081551700176,[0.22],[-0.20333333333333334],[1],[0],[0],[1.459760602996539],['target'],705599,001,2024-10-10_13h39.22.626,VISUALSEARCH,2024.2.1,None,2024-10-10 13h43.58.343800 +0530,
180,0,180,[-0.25333333333333335],[-0.25166666666666665],[1],[0],[0],[1.5972167760010052],['target'],180,0,180,0,281.9450422150003,,5,281.934896363,281.9450422150003,281.9450422150003,0.013916798998252489,283.5326431350004,[-0.25333333333333335],[-0.25166666666666665],[1],[0],[0],[1.5972167760010052],['target'],705599,001,2024-10-10_13h39.22.626,VISUALSEARCH,2024.2.1,None,2024-10-10 13h43.58.343800 +0530,
181,0,181,[-0.31833333333333336],[-0.41333333333333333],[1],[0],[0],[2.4615543600011733],['target'],181,0,181,0,283.58416544300053,,10,283.5651565049993,283.58416544300053,283.58416544300053,0.032274476001475705,286.0272621719996,[-0.31833333333333336],[-0.41333333333333333],[1],[0],[0],[2.4615543600011733],['target'],705599,001,2024-10-10_13h39.22.626,VISUALSEARCH,2024.2.1,None,2024-10-10 13h43.58.343800 +0530,
182,0,182,[0.45666666666666667],[0.2],[1],[0],[0],[2.42282910799986],['target'],182,0,182,0,286.06915435500196,,10,286.05507738600136,286.06915435500196,286.06915435500196,0.02764187000138918,288.4782996790018,[0.45666666666666667],[0.2],[1],[0],[0],[2.42282910799986],['target'],705599,001,2024-10-10_13h39.22.626,VISUALSEARCH,2024.2.1,None,2024-10-10 13h43.58.343800 +0530,
183,0,183,[-0.3466666666666667],[-0.31333333333333335],[1],[0],[0],[1.5032968669984257],['target'],183,0,183,0,288.52155860700077,,10,288.5069965360017,288.52155860700077,288.52155860700077,0.028542531999846688,290.01067801500176,[-0.3466666666666667],[-0.31333333333333335],[1],[0],[0],[1.5032968669984257],['target'],705599,001,2024-10-10_13h39.22.626,VISUALSEARCH,2024.2.1,None,2024-10-10 13h43.58.343800 +0530,
184,0,184,[0.2733333333333333],[0.38],[1],[0],[0],[1.469256921998749],['target'],184,0,184,0,290.05167312900085,,10,290.0375711400011,290.05167312900085,290.05167312900085,0.02673986599984346,291.5074798700007,[0.2733333333333333],[0.38],[1],[0],[0],[1.469256921998749],['target'],705599,001,2024-10-10_13h39.22.626,VISUALSEARCH,2024.2.1,None,2024-10-10 13h43.58.343800 +0530,
185,0,185,[-0.41],[0.255],[1],[0],[0],[1.1393589629988128],['target'],185,0,185,0,291.5320065519991,,5,291.5217440410015,291.5320065519991,291.5320065519991,0.014096186001552269,292.66162642100244,[-0.41],[0.255],[1],[0],[0],[1.1393589629988128],['target'],705599,001,2024-10-10_13h39.22.626,VISUALSEARCH,2024.2.1,None,2024-10-10 13h43.58.343800 +0530,
186,0,186,[0.35],[-0.32],[1],[0],[0],[1.4705447570013348],['target'],186,0,186,0,292.6868023749994,,5,292.6764777169992,292.6868023749994,292.6868023749994,0.014730973998666741,294.1473977120004,[0.35],[-0.32],[1],[0],[0],[1.4705447570013348],['target'],705599,001,2024-10-10_13h39.22.626,VISUALSEARCH,2024.2.1,None,2024-10-10 13h43.58.343800 +0530,
187,0,187,[-0.4683333333333333],[-0.3566666666666667],[1],[0],[0],[4.26463545000297],['target'],187,0,187,0,294.1884402889991,,10,294.1743679470019,294.1884402889991,294.1884402889991,0.02685038900017389,298.4394130190012,[-0.4683333333333333],[-0.3566666666666667],[1],[0],[0],[4.26463545000297],['target'],705599,001,2024-10-10_13h39.22.626,VISUALSEARCH,2024.2.1,None,2024-10-10 13h43.58.343800 +0530,
188,0,188,[-0.08],[-0.04],[1],[0],[0],[1.8501198589983687],['target'],188,0,188,0,298.481949265999,,10,298.4673105900001,298.481949265999,298.481949265999,0.027736028998333495,300.317872489999,[-0.08],[-0.04],[1],[0],[0],[1.8501198589983687],['target'],705599,001,2024-10-10_13h39.22.626,VISUALSEARCH,2024.2.1,None,2024-10-10 13h43.58.343800 +0530,
189,0,189,[0.255],[-0.245],[1],[0],[0],[1.8593003089990816],['target'],189,0,189,0,300.35871421900083,,10,300.3447500479997,300.35871421900083,300.35871421900083,0.0267045880027581,302.20449781999923,[0.255],[-0.245],[1],[0],[0],[1.8593003089990816],['target'],705599,001,2024-10-10_13h39.22.626,VISUALSEARCH,2024.2.1,None,2024-10-10 13h43.58.343800 +0530,
190,0,190,[0.485],[0.11666666666666667],[1],[0],[0],[1.342328478996933],['target'],190,0,190,0,302.2455822609991,,10,302.231564523001,302.2455822609991,302.2455822609991,0.02681507200031774,303.57432166900253,[0.485],[0.11666666666666667],[1],[0],[0],[1.342328478996933],['target'],705599,001,2024-10-10_13h39.22.626,VISUALSEARCH,2024.2.1,None,2024-10-10 13h43.58.343800 +0530,
191,0,191,[-0.22],[0.3016666666666667],[1],[0],[0],[1.3289464830013458],['target'],191,0,191,0,303.59929350699895,,5,303.58873031500116,303.59929350699895,303.59929350699895,0.014252509998186724,304.9180861490022,[-0.22],[0.3016666666666667],[1],[0],[0],[1.3289464830013458],['target'],705599,001,2024-10-10_13h39.22.626,VISUALSEARCH,2024.2.1,None,2024-10-10 13h43.58.343800 +0530,
192,0,192,[-0.09666666666666666],[-0.4583333333333333],[1],[0],[0],[2.1702084799981094],['target'],192,0,192,0,304.96005008000066,,10,304.9453762379999,304.96005008000066,304.96005008000066,0.027158979999512667,307.11611500300205,[-0.09666666666666666],[-0.4583333333333333],[1],[0],[0],[2.1702084799981094],['target'],705599,001,2024-10-10_13h39.22.626,VISUALSEARCH,2024.2.1,None,2024-10-10 13h43.58.343800 +0530,
193,0,193,[0.095],[-0.18833333333333332],[1],[0],[0],[1.2619833989992912],['target'],193,0,193,0,307.1597353830002,,10,307.14375100300094,307.1597353830002,307.1597353830002,0.027486964001582237,308.40624986400144,[0.095],[-0.18833333333333332],[1],[0],[0],[1.2619833989992912],['target'],705599,001,2024-10-10_13h39.22.626,VISUALSEARCH,2024.2.1,None,2024-10-10 13h43.58.343800 +0530,
194,0,194,[-0.3233333333333333],[-0.31666666666666665],[1],[0],[0],[1.0899383799987845],['target'],194,0,194,0,308.4482473570024,,10,308.4336006190024,308.4482473570024,308.4482473570024,0.02718132099835202,309.5240924940008,[-0.3233333333333333],[-0.31666666666666665],[1],[0],[0],[1.0899383799987845],['target'],705599,001,2024-10-10_13h39.22.626,VISUALSEARCH,2024.2.1,None,2024-10-10 13h43.58.343800 +0530,
195,0,195,[-0.45166666666666666],[0.14666666666666667],[1],[0],[0],[1.7666518770020048],['target'],195,0,195,0,309.54767038499995,,5,309.5380786700007,309.54767038499995,309.54767038499995,0.01381667900204775,311.3054751160016,[-0.45166666666666666],[0.14666666666666667],[1],[0],[0],[1.7666518770020048],['target'],705599,001,2024-10-10_13h39.22.626,VISUALSEARCH,2024.2.1,None,2024-10-10 13h43.58.343800 +0530,
196,0,196,[0.44333333333333336],[0.03166666666666667],[1],[0],[0],[1.5903503430017736],['target'],196,0,196,0,311.34790155000155,,10,311.3338114350008,311.34790155000155,311.34790155000155,0.028159929999674205,312.92472566500146,[0.44333333333333336],[0.03166666666666667],[1],[0],[0],[1.5903503430017736],['target'],705599,001,2024-10-10_13h39.22.626,VISUALSEARCH,2024.2.1,None,2024-10-10 13h43.58.343800 +0530,
197,0,197,[0.008333333333333333],[0.3566666666666667],[1],[0],[0],[1.6621865430024627],['target'],197,0,197,0,312.94915607400253,,5,312.93883015900064,312.94915607400253,312.94915607400253,0.013950982000096701,314.6016336110006,[0.008333333333333333],[0.3566666666666667],[1],[0],[0],[1.6621865430024627],['target'],705599,001,2024-10-10_13h39.22.626,VISUALSEARCH,2024.2.1,None,2024-10-10 13h43.58.343800 +0530,
198,0,198,[0.03333333333333333],[0.275],[1],[0],[0],[1.1618865560012637],['target'],198,0,198,0,314.64585563900255,,10,314.6303966760024,314.64585563900255,314.64585563900255,0.02851893900151481,315.79333730800136,[0.03333333333333333],[0.275],[1],[0],[0],[1.1618865560012637],['target'],705599,001,2024-10-10_13h39.22.626,VISUALSEARCH,2024.2.1,None,2024-10-10 13h43.58.343800 +0530,
199,0,199,[0.3883333333333333],[-0.37333333333333335],[1],[0],[0],[2.6701897180028027],['target'],199,0,199,0,315.82128434900005,,5,315.8106050419992,315.82128434900005,315.82128434900005,0.017009772000164958,318.48125997100215,[0.3883333333333333],[-0.37333333333333335],[1],[0],[0],[2.6701897180028027],['target'],705599,001,2024-10-10_13h39.22.626,VISUALSEARCH,2024.2.1,None,2024-10-10 13h43.58.343800 +0530,
