thisN,thisTrialN,thisRepN,key_resp.keys,key_resp.corr,key_resp.rt,key_resp.duration,tilt,trials.thisRepN,trials.thisTrialN,trials.thisN,trials.thisIndex,thisRow.t,notes,trial.started,fixation.started,key_resp.started,fixation.stopped,trial.stopped,trials.key_resp.keys,trials.key_resp.corr,trials.key_resp.rt,trials.key_resp.duration,trials.tilt,participant,session,date,expName,psychopyVersion,frameRate,expStart,
0,0,0,up,1,0.6616281179958605,None,0,0,0,0,0,0.03181938600027934,,0.025180733005981892,0.03181938600027934,1.0033190829999512,1.0281896920059808,1.686491307002143,up,1,0.6616281179958605,None,0,501695,001,2024-09-17_10h54.30.561,Signaldetection_experiment,2024.2.1,119.81225371033554,2024-09-17 10h54.39.028359 +0530,
1,0,1,down,1,0.5979956689989194,None,-5,1,0,1,0,1.7128955670050345,,1.6867861920036376,1.7128955670050345,2.679286315003992,2.7057658080011606,3.2845237299989094,down,1,0.5979956689989194,None,-5,501695,001,2024-09-17_10h54.30.561,Signaldetection_experiment,2024.2.1,119.81225371033554,2024-09-17 10h54.39.028359 +0530,
2,0,2,up,1,0.6071569020059542,None,0,2,0,2,0,3.2893157250000513,,3.28474639000342,3.2893157250000513,4.281630648001737,4.289443256006052,4.892648642002314,up,1,0.6071569020059542,None,0,501695,001,2024-09-17_10h54.30.561,Signaldetection_experiment,2024.2.1,119.81225371033554,2024-09-17 10h54.39.028359 +0530,
3,0,3,up,1,0.685561673999473,None,0,3,0,3,0,4.898928660004458,,4.892875953999464,4.898928660004458,5.913414085000113,5.913414085000113,6.602785751005285,up,1,0.685561673999473,None,0,501695,001,2024-09-17_10h54.30.561,Signaldetection_experiment,2024.2.1,119.81225371033554,2024-09-17 10h54.39.028359 +0530,
4,0,4,up,1,0.473597547999816,None,0,4,0,4,0,6.615361275005853,,6.603129255003296,6.615361275005853,7.610200802999316,7.633682626001246,8.090363351999258,up,1,0.473597547999816,None,0,501695,001,2024-09-17_10h54.30.561,Signaldetection_experiment,2024.2.1,119.81225371033554,2024-09-17 10h54.39.028359 +0530,
5,0,5,up,1,0.5653678849994321,None,0,5,0,5,0,8.106825414004561,,8.090703494999616,8.106825414004561,9.097682582003472,9.12131216400303,9.66617720600334,up,1,0.5653678849994321,None,0,501695,001,2024-09-17_10h54.30.561,Signaldetection_experiment,2024.2.1,119.81225371033554,2024-09-17 10h54.39.028359 +0530,
6,0,6,up,0,0.6793733060039813,None,3,6,0,6,0,9.674560949999432,,9.666614166999352,9.674560949999432,10.66391250500601,10.672745718002261,11.350700253002287,up,0,0.6793733060039813,None,3,501695,001,2024-09-17_10h54.30.561,Signaldetection_experiment,2024.2.1,119.81225371033554,2024-09-17 10h54.39.028359 +0530,
7,0,7,down,0,0.6547907589992974,None,0,7,0,7,0,11.356081169004028,,11.350922145000368,11.356081169004028,12.347592033002002,12.347592033002002,13.011899542005267,down,0,0.6547907589992974,None,0,501695,001,2024-09-17_10h54.30.561,Signaldetection_experiment,2024.2.1,119.81225371033554,2024-09-17 10h54.39.028359 +0530,
8,0,8,up,0,0.6429893050008104,None,1,8,0,8,0,13.01671619600529,,13.012147317000199,13.01671619600529,14.006780323004932,14.01455667600385,14.653775411999959,up,0,0.6429893050008104,None,1,501695,001,2024-09-17_10h54.30.561,Signaldetection_experiment,2024.2.1,119.81225371033554,2024-09-17 10h54.39.028359 +0530,
9,0,9,up,1,0.7387286049997783,None,0,9,0,9,0,14.660696733000805,,14.654047451003862,14.660696733000805,15.64850977199967,15.656628285003535,16.395317353999417,up,1,0.7387286049997783,None,0,501695,001,2024-09-17_10h54.30.561,Signaldetection_experiment,2024.2.1,119.81225371033554,2024-09-17 10h54.39.028359 +0530,
10,0,10,down,0,0.5255799490041682,None,0,10,0,10,0,16.401335621005273,,16.3955497440038,16.401335621005273,17.391468269001052,17.399575185001595,17.919867128999613,down,0,0.5255799490041682,None,0,501695,001,2024-09-17_10h54.30.561,Signaldetection_experiment,2024.2.1,119.81225371033554,2024-09-17 10h54.39.028359 +0530,
11,0,11,down,1,0.4814361269964138,None,-3,11,0,11,0,17.926191746002587,,17.920124206000764,17.926191746002587,18.914642374002142,18.923319081004593,19.40219521200197,down,1,0.4814361269964138,None,-3,501695,001,2024-09-17_10h54.30.561,Signaldetection_experiment,2024.2.1,119.81225371033554,2024-09-17 10h54.39.028359 +0530,
12,0,12,down,1,0.5747538040013751,None,1,12,0,12,0,19.408861984004034,,19.402438062999863,19.408861984004034,20.3980141610009,20.406406128000526,20.980386520001048,down,1,0.5747538040013751,None,1,501695,001,2024-09-17_10h54.30.561,Signaldetection_experiment,2024.2.1,119.81225371033554,2024-09-17 10h54.39.028359 +0530,
13,0,13,down,0,0.5436964200052898,None,0,13,0,13,0,20.996432734005793,,20.980736477999017,20.996432734005793,22.004689152003266,22.004689152003266,22.553372009999293,down,0,0.5436964200052898,None,0,501695,001,2024-09-17_10h54.30.561,Signaldetection_experiment,2024.2.1,119.81225371033554,2024-09-17 10h54.39.028359 +0530,
14,0,14,up,0,0.6589111790017341,None,4,14,0,14,0,22.568397734001337,,22.553754881002533,22.568397734001337,23.56008034000115,23.58397172500554,24.225381292999373,up,0,0.6589111790017341,None,4,501695,001,2024-09-17_10h54.30.561,Signaldetection_experiment,2024.2.1,119.81225371033554,2024-09-17 10h54.39.028359 +0530,
15,0,15,up,1,0.7970600350017776,None,0,15,0,15,0,24.241298622000613,,24.225728137003898,24.241298622000613,25.2331753460021,25.256975255004363,26.04481106500316,up,1,0.7970600350017776,None,0,501695,001,2024-09-17_10h54.30.561,Signaldetection_experiment,2024.2.1,119.81225371033554,2024-09-17 10h54.39.028359 +0530,
16,0,16,up,1,0.7476064570000744,None,0,16,0,16,0,26.06139891100611,,26.04515621500468,26.06139891100611,27.068167780002113,27.068167780002113,27.82389903400326,up,1,0.7476064570000744,None,0,501695,001,2024-09-17_10h54.30.561,Signaldetection_experiment,2024.2.1,119.81225371033554,2024-09-17 10h54.39.028359 +0530,
17,0,17,down,1,0.7460828719995334,None,4,17,0,17,0,27.841984926002624,,27.82421949000127,27.841984926002624,28.832393197000783,28.841522809001617,29.598318346004817,down,1,0.7460828719995334,None,4,501695,001,2024-09-17_10h54.30.561,Signaldetection_experiment,2024.2.1,119.81225371033554,2024-09-17 10h54.39.028359 +0530,
18,0,18,up,0,0.37580908599920804,None,-2,18,0,18,0,29.616848892001144,,29.598639169002126,29.616848892001144,30.59223530500458,30.609347089004586,30.971044447003806,up,0,0.37580908599920804,None,-2,501695,001,2024-09-17_10h54.30.561,Signaldetection_experiment,2024.2.1,119.81225371033554,2024-09-17 10h54.39.028359 +0530,
19,0,19,down,1,0.6800127079986851,None,-3,19,0,19,0,30.97672222800611,,30.971295395000197,30.97672222800611,31.970516497000062,31.99747976600338,32.65578584100149,down,1,0.6800127079986851,None,-3,501695,001,2024-09-17_10h54.30.561,Signaldetection_experiment,2024.2.1,119.81225371033554,2024-09-17 10h54.39.028359 +0530,
20,0,20,up,0,0.4808012020002934,None,-2,20,0,20,0,32.665108594999765,,32.65616212000168,32.665108594999765,33.64935751300072,33.65896906800481,34.136457701002655,up,0,0.4808012020002934,None,-2,501695,001,2024-09-17_10h54.30.561,Signaldetection_experiment,2024.2.1,119.81225371033554,2024-09-17 10h54.39.028359 +0530,
21,0,21,up,0,0.645587956001691,None,4,21,0,21,0,34.14380129700294,,34.13670604700019,34.14380129700294,35.13189566499932,35.14098660000309,35.779245344005176,up,0,0.645587956001691,None,4,501695,001,2024-09-17_10h54.30.561,Signaldetection_experiment,2024.2.1,119.81225371033554,2024-09-17 10h54.39.028359 +0530,
22,0,22,up,1,0.7538102060061647,None,0,22,0,22,0,35.78442063900002,,35.7795830440009,35.78442063900002,36.77423877900583,36.782688942003006,37.530019599005755,up,1,0.7538102060061647,None,0,501695,001,2024-09-17_10h54.30.561,Signaldetection_experiment,2024.2.1,119.81225371033554,2024-09-17 10h54.39.028359 +0530,
23,0,23,down,1,0.5628328659950057,None,-5,23,0,23,0,37.53563531500549,,37.53035093899962,37.53563531500549,38.52386911099893,38.531968193005014,39.0960557300059,down,1,0.5628328659950057,None,-5,501695,001,2024-09-17_10h54.30.561,Signaldetection_experiment,2024.2.1,119.81225371033554,2024-09-17 10h54.39.028359 +0530,
24,0,24,up,1,0.6858579320032732,None,0,24,0,24,0,39.101171760004945,,39.09630089699931,39.101171760004945,40.09723284700158,40.09723284700158,40.789270166998904,up,1,0.6858579320032732,None,0,501695,001,2024-09-17_10h54.30.561,Signaldetection_experiment,2024.2.1,119.81225371033554,2024-09-17 10h54.39.028359 +0530,
25,0,25,up,1,0.6378398759989068,None,0,25,0,25,0,40.795660282004974,,40.78948936800589,40.795660282004974,41.78568753199943,41.793857923999894,42.4277489820015,up,1,0.6378398759989068,None,0,501695,001,2024-09-17_10h54.30.561,Signaldetection_experiment,2024.2.1,119.81225371033554,2024-09-17 10h54.39.028359 +0530,
26,0,26,down,1,0.4717069999969681,None,2,26,0,26,0,42.43704913900001,,42.42825303900463,42.43704913900001,43.41980984100519,43.44496566900489,43.9160927060002,down,1,0.4717069999969681,None,2,501695,001,2024-09-17_10h54.30.561,Signaldetection_experiment,2024.2.1,119.81225371033554,2024-09-17 10h54.39.028359 +0530,
27,0,27,up,1,0.5900962960004108,None,0,27,0,27,0,43.92516914800217,,43.916435302002355,43.92516914800217,44.93498915099917,44.93498915099917,45.53060271400318,up,1,0.5900962960004108,None,0,501695,001,2024-09-17_10h54.30.561,Signaldetection_experiment,2024.2.1,119.81225371033554,2024-09-17 10h54.39.028359 +0530,
28,0,28,up,0,0.6870601849950617,None,3,28,0,28,0,45.53914651300147,,45.53100857700338,45.53914651300147,46.55946612600383,46.55946612600383,47.251983626003494,up,0,0.6870601849950617,None,3,501695,001,2024-09-17_10h54.30.561,Signaldetection_experiment,2024.2.1,119.81225371033554,2024-09-17 10h54.39.028359 +0530,
29,0,29,up,0,0.6047310860012658,None,4,29,0,29,0,47.260552616004134,,47.25236341600248,47.260552616004134,48.247458132005704,48.25665842700255,48.86078888000338,up,0,0.6047310860012658,None,4,501695,001,2024-09-17_10h54.30.561,Signaldetection_experiment,2024.2.1,119.81225371033554,2024-09-17 10h54.39.028359 +0530,
30,0,30,down,1,0.8632795160010573,None,1,30,0,30,0,48.86666969599901,,48.86103224000544,48.86666969599901,49.88321319500392,49.88321319500392,50.768485815999156,down,1,0.8632795160010573,None,1,501695,001,2024-09-17_10h54.30.561,Signaldetection_experiment,2024.2.1,119.81225371033554,2024-09-17 10h54.39.028359 +0530,
31,0,31,up,0,0.6593712359972415,None,1,31,0,31,0,50.774721501002205,,50.76875085099891,50.774721501002205,51.76586423400295,51.77379293100239,52.428853205005,up,0,0.6593712359972415,None,1,501695,001,2024-09-17_10h54.30.561,Signaldetection_experiment,2024.2.1,119.81225371033554,2024-09-17 10h54.39.028359 +0530,
32,0,32,up,1,0.49956614099937724,None,0,32,0,32,0,52.4355604950033,,52.42909614700329,52.4355604950033,53.4237716120042,53.43347003600502,53.92890288500348,up,1,0.49956614099937724,None,0,501695,001,2024-09-17_10h54.30.561,Signaldetection_experiment,2024.2.1,119.81225371033554,2024-09-17 10h54.39.028359 +0530,
33,0,33,down,1,0.589427839993732,None,4,33,0,33,0,53.935358720002114,,53.92914551200374,53.935358720002114,54.93244511500234,54.93244511500234,55.52699733500049,down,1,0.589427839993732,None,4,501695,001,2024-09-17_10h54.30.561,Signaldetection_experiment,2024.2.1,119.81225371033554,2024-09-17 10h54.39.028359 +0530,
34,0,34,down,1,0.6586054689978482,None,4,34,0,34,0,55.53542158500204,,55.52737424999941,55.53542158500204,56.53771554000559,56.560787179005274,57.20270106600219,down,1,0.6586054689978482,None,4,501695,001,2024-09-17_10h54.30.561,Signaldetection_experiment,2024.2.1,119.81225371033554,2024-09-17 10h54.39.028359 +0530,
35,0,35,down,1,0.676274220997584,None,-5,35,0,35,0,57.21139145800407,,57.20311559000402,57.21139145800407,58.23176861600223,58.23176861600223,58.914712983001664,down,1,0.676274220997584,None,-5,501695,001,2024-09-17_10h54.30.561,Signaldetection_experiment,2024.2.1,119.81225371033554,2024-09-17 10h54.39.028359 +0530,
36,0,36,up,0,0.7820440439973027,None,4,36,0,36,0,58.923632304999046,,58.91508906400122,58.923632304999046,59.90637083400361,59.91718524400494,60.69323763000284,up,0,0.7820440439973027,None,4,501695,001,2024-09-17_10h54.30.561,Signaldetection_experiment,2024.2.1,119.81225371033554,2024-09-17 10h54.39.028359 +0530,
37,0,37,up,1,0.6000822349960799,None,0,37,0,37,0,60.698652676001075,,60.69347444400046,60.698652676001075,61.68871990200569,61.69735551100166,62.293328222003765,up,1,0.6000822349960799,None,0,501695,001,2024-09-17_10h54.30.561,Signaldetection_experiment,2024.2.1,119.81225371033554,2024-09-17 10h54.39.028359 +0530,
38,0,38,up,0,0.6733792200029711,None,1,38,0,38,0,62.31488916800299,,62.29357140200591,62.31488916800299,63.316470718003984,63.34009924100246,64.00458724300552,up,0,0.6733792200029711,None,1,501695,001,2024-09-17_10h54.30.561,Signaldetection_experiment,2024.2.1,119.81225371033554,2024-09-17 10h54.39.028359 +0530,
39,0,39,up,1,0.5057742369972402,None,0,39,0,39,0,64.0218372820018,,64.00488221400155,64.0218372820018,65.01389189700421,65.03753910300293,65.5343548910023,up,1,0.5057742369972402,None,0,501695,001,2024-09-17_10h54.30.561,Signaldetection_experiment,2024.2.1,119.81225371033554,2024-09-17 10h54.39.028359 +0530,
40,0,40,down,1,0.5610944129948621,None,4,40,0,40,0,65.55122974800179,,65.53472654500365,65.55122974800179,66.55961591300002,66.55961591300002,67.12871637000353,down,1,0.5610944129948621,None,4,501695,001,2024-09-17_10h54.30.561,Signaldetection_experiment,2024.2.1,119.81225371033554,2024-09-17 10h54.39.028359 +0530,
41,0,41,down,1,0.47063495000475086,None,-5,41,0,41,0,67.13731769000151,,67.12908925200463,67.13731769000151,68.14544766600011,68.14544766600011,68.62124832800328,down,1,0.47063495000475086,None,-5,501695,001,2024-09-17_10h54.30.561,Signaldetection_experiment,2024.2.1,119.81225371033554,2024-09-17 10h54.39.028359 +0530,
42,0,42,up,1,0.5637893230014015,None,0,42,0,42,0,68.6374280529999,,68.6215930180042,68.6374280529999,69.64944440900581,69.64944440900581,70.21923887000594,up,1,0.5637893230014015,None,0,501695,001,2024-09-17_10h54.30.561,Signaldetection_experiment,2024.2.1,119.81225371033554,2024-09-17 10h54.39.028359 +0530,
43,0,43,up,1,0.6679928910016315,None,0,43,0,43,0,70.22760652000579,,70.21957371000462,70.22760652000579,71.21275691100163,71.22107370800222,71.88525909899909,up,1,0.6679928910016315,None,0,501695,001,2024-09-17_10h54.30.561,Signaldetection_experiment,2024.2.1,119.81225371033554,2024-09-17 10h54.39.028359 +0530,
44,0,44,up,1,0.5452957809975487,None,0,44,0,44,0,71.89055063900014,,71.88551586900576,71.89055063900014,72.8782323580017,72.88664901100128,73.42556681499991,up,1,0.5452957809975487,None,0,501695,001,2024-09-17_10h54.30.561,Signaldetection_experiment,2024.2.1,119.81225371033554,2024-09-17 10h54.39.028359 +0530,
45,0,45,down,0,0.6617167250005878,None,0,45,0,45,0,73.43272689400328,,73.42587379200268,73.43272689400328,74.419487733001,74.42883176200121,75.08456101699994,down,0,0.6617167250005878,None,0,501695,001,2024-09-17_10h54.30.561,Signaldetection_experiment,2024.2.1,119.81225371033554,2024-09-17 10h54.39.028359 +0530,
46,0,46,up,1,0.43565521799609996,None,0,46,0,46,0,75.0895497599995,,75.08479565900052,75.0895497599995,76.07810170700395,76.08588297000097,76.51821701200242,up,1,0.43565521799609996,None,0,501695,001,2024-09-17_10h54.30.561,Signaldetection_experiment,2024.2.1,119.81225371033554,2024-09-17 10h54.39.028359 +0530,
47,0,47,up,0,0.6216680389989051,None,1,47,0,47,0,76.52499006000289,,76.51849779300392,76.52499006000289,77.51195074800489,77.52023654599907,78.1415419670011,up,0,0.6216680389989051,None,1,501695,001,2024-09-17_10h54.30.561,Signaldetection_experiment,2024.2.1,119.81225371033554,2024-09-17 10h54.39.028359 +0530,
48,0,48,up,1,0.7387396430058288,None,0,48,0,48,0,78.14861134600505,,78.14176150600542,78.14861134600505,79.13663943000574,79.14656928000477,79.88304622000578,up,1,0.7387396430058288,None,0,501695,001,2024-09-17_10h54.30.561,Signaldetection_experiment,2024.2.1,119.81225371033554,2024-09-17 10h54.39.028359 +0530,
49,0,49,down,0,0.40727645700098947,None,0,49,0,49,0,79.88785422100045,,79.88326718399912,79.88785422100045,80.88042562299961,80.88847629500378,81.29354713200155,down,0,0.40727645700098947,None,0,501695,001,2024-09-17_10h54.30.561,Signaldetection_experiment,2024.2.1,119.81225371033554,2024-09-17 10h54.39.028359 +0530,
50,0,50,down,1,0.5233520429974305,None,-5,50,0,50,0,81.29900363000343,,81.29378984399955,81.29900363000343,82.29042506800033,82.29042506800033,82.82400597300148,down,1,0.5233520429974305,None,-5,501695,001,2024-09-17_10h54.30.561,Signaldetection_experiment,2024.2.1,119.81225371033554,2024-09-17 10h54.39.028359 +0530,
51,0,51,up,0,0.4696709150011884,None,4,51,0,51,0,82.84167289500328,,82.8243277770016,82.84167289500328,83.84839553700294,83.84839553700294,84.32576947000052,up,0,0.4696709150011884,None,4,501695,001,2024-09-17_10h54.30.561,Signaldetection_experiment,2024.2.1,119.81225371033554,2024-09-17 10h54.39.028359 +0530,
52,0,52,down,0,0.8489301739973598,None,0,52,0,52,0,84.34304174400313,,84.32612110800255,84.34304174400313,85.33656868099933,85.36111569200148,86.18895845200313,down,0,0.8489301739973598,None,0,501695,001,2024-09-17_10h54.30.561,Signaldetection_experiment,2024.2.1,119.81225371033554,2024-09-17 10h54.39.028359 +0530,
53,0,53,down,1,0.6311224949968164,None,3,53,0,53,0,86.19757001600374,,86.1893553090049,86.19757001600374,87.2057052750024,87.2057052750024,87.84444880400406,down,1,0.6311224949968164,None,3,501695,001,2024-09-17_10h54.30.561,Signaldetection_experiment,2024.2.1,119.81225371033554,2024-09-17 10h54.39.028359 +0530,
54,0,54,down,1,0.6597115999975358,None,2,54,0,54,0,87.85347054000158,,87.84482438900159,87.85347054000158,88.85506279400579,88.87846814400109,89.519599269006,down,1,0.6597115999975358,None,2,501695,001,2024-09-17_10h54.30.561,Signaldetection_experiment,2024.2.1,119.81225371033554,2024-09-17 10h54.39.028359 +0530,
55,0,55,up,1,0.4210331110007246,None,0,55,0,55,0,89.53572980299941,,89.51995038400491,89.53572980299941,90.52850581199891,90.5522254940006,90.95599348199903,up,1,0.4210331110007246,None,0,501695,001,2024-09-17_10h54.30.561,Signaldetection_experiment,2024.2.1,119.81225371033554,2024-09-17 10h54.39.028359 +0530,
56,0,56,down,1,0.4109784599932027,None,4,56,0,56,0,90.96426233500097,,90.95636689100502,90.96426233500097,91.95448111100268,91.96383489500295,92.36868637700536,down,1,0.4109784599932027,None,4,501695,001,2024-09-17_10h54.30.561,Signaldetection_experiment,2024.2.1,119.81225371033554,2024-09-17 10h54.39.028359 +0530,
57,0,57,up,1,0.8198787310029729,None,0,57,0,57,0,92.37496044400177,,92.36892245100171,92.37496044400177,93.36292375700577,93.3712549050033,94.18527235700458,up,1,0.8198787310029729,None,0,501695,001,2024-09-17_10h54.30.561,Signaldetection_experiment,2024.2.1,119.81225371033554,2024-09-17 10h54.39.028359 +0530,
58,0,58,down,1,0.4068824809946818,None,-3,58,0,58,0,94.1911422789999,,94.185535153003,94.1911422789999,95.1811338050029,95.19116754300194,95.60383778699907,down,1,0.4068824809946818,None,-3,501695,001,2024-09-17_10h54.30.561,Signaldetection_experiment,2024.2.1,119.81225371033554,2024-09-17 10h54.39.028359 +0530,
59,0,59,down,0,0.5323966840005596,None,0,59,0,59,0,95.6201384560045,,95.60413620799955,95.6201384560045,96.62688021800568,96.62688021800568,97.17342615700181,down,0,0.5323966840005596,None,0,501695,001,2024-09-17_10h54.30.561,Signaldetection_experiment,2024.2.1,119.81225371033554,2024-09-17 10h54.39.028359 +0530,
60,0,60,up,1,0.6432484420001856,None,0,60,0,60,0,97.18996998399962,,97.17371439099952,97.18996998399962,98.2005633910012,98.2005633910012,98.86116453900468,up,1,0.6432484420001856,None,0,501695,001,2024-09-17_10h54.30.561,Signaldetection_experiment,2024.2.1,119.81225371033554,2024-09-17 10h54.39.028359 +0530,
61,0,61,down,1,0.6278425589989638,None,-5,61,0,61,0,98.87937110900384,,98.86148734600283,98.87937110900384,99.87252397100383,99.89549042500585,100.51144662900333,down,1,0.6278425589989638,None,-5,501695,001,2024-09-17_10h54.30.561,Signaldetection_experiment,2024.2.1,119.81225371033554,2024-09-17 10h54.39.028359 +0530,
62,0,62,up,1,0.5138248840012238,None,0,62,0,62,0,100.52939166800206,,100.51175294800487,100.52939166800206,101.51124865300517,101.52884578100202,102.0280977240036,up,1,0.5138248840012238,None,0,501695,001,2024-09-17_10h54.30.561,Signaldetection_experiment,2024.2.1,119.81225371033554,2024-09-17 10h54.39.028359 +0530,
63,0,63,up,0,0.5982820099961828,None,-3,63,0,63,0,102.03719972100225,,102.02874736300146,102.03719972100225,103.04618389800453,103.04618389800453,103.64954638299969,up,0,0.5982820099961828,None,-3,501695,001,2024-09-17_10h54.30.561,Signaldetection_experiment,2024.2.1,119.81225371033554,2024-09-17 10h54.39.028359 +0530,
64,0,64,down,1,0.7010857150016818,None,-5,64,0,64,0,103.65806019500451,,103.64992324900231,103.65806019500451,104.67541768800584,104.67541768800584,105.38196594400506,down,1,0.7010857150016818,None,-5,501695,001,2024-09-17_10h54.30.561,Signaldetection_experiment,2024.2.1,119.81225371033554,2024-09-17 10h54.39.028359 +0530,
65,0,65,up,1,0.5722186790007981,None,0,65,0,65,0,105.39048241000273,,105.3823090549995,105.39048241000273,106.37294240000483,106.38278422300209,106.95301848000236,up,1,0.5722186790007981,None,0,501695,001,2024-09-17_10h54.30.561,Signaldetection_experiment,2024.2.1,119.81225371033554,2024-09-17 10h54.39.028359 +0530,
66,0,66,down,1,0.5752904619948822,None,-3,66,0,66,0,106.9589080299993,,106.95326066700363,106.9589080299993,107.94949362500483,107.95782480000344,108.52707444900443,down,1,0.5752904619948822,None,-3,501695,001,2024-09-17_10h54.30.561,Signaldetection_experiment,2024.2.1,119.81225371033554,2024-09-17 10h54.39.028359 +0530,
67,0,67,down,1,0.6026858449986321,None,-3,67,0,67,0,108.54879049300507,,108.52733754400106,108.54879049300507,109.55430719099968,109.57750406700507,110.17034687699925,down,1,0.6026858449986321,None,-3,501695,001,2024-09-17_10h54.30.561,Signaldetection_experiment,2024.2.1,119.81225371033554,2024-09-17 10h54.39.028359 +0530,
68,0,68,up,0,0.38709290500264615,None,-5,68,0,68,0,110.18711059700581,,110.17073830400477,110.18711059700581,111.19544719900296,111.19544719900296,111.5864692910036,up,0,0.38709290500264615,None,-5,501695,001,2024-09-17_10h54.30.561,Signaldetection_experiment,2024.2.1,119.81225371033554,2024-09-17 10h54.39.028359 +0530,
69,0,69,up,1,0.6531431109979167,None,0,69,0,69,0,111.59246396000526,,111.5867157870016,111.59246396000526,112.58085464800388,112.58870526700048,113.23629265700583,up,1,0.6531431109979167,None,0,501695,001,2024-09-17_10h54.30.561,Signaldetection_experiment,2024.2.1,119.81225371033554,2024-09-17 10h54.39.028359 +0530,
70,0,70,up,1,0.6696156020043418,None,0,70,0,70,0,113.24207460500475,,113.23654227099905,113.24207460500475,114.23015045100328,114.23829292099981,114.90242882800521,up,1,0.6696156020043418,None,0,501695,001,2024-09-17_10h54.30.561,Signaldetection_experiment,2024.2.1,119.81225371033554,2024-09-17 10h54.39.028359 +0530,
71,0,71,down,1,0.411451562998991,None,-5,71,0,71,0,114.90726353200444,,114.90268339400063,114.90726353200444,115.9132300199999,115.9132300199999,116.33878876400559,down,1,0.411451562998991,None,-5,501695,001,2024-09-17_10h54.30.561,Signaldetection_experiment,2024.2.1,119.81225371033554,2024-09-17 10h54.39.028359 +0530,
72,0,72,down,1,0.45809661900420906,None,-4,72,0,72,0,116.35610331200587,,116.33915911700024,116.35610331200587,117.33416666999983,117.35744158500165,117.79849675800506,down,1,0.45809661900420906,None,-4,501695,001,2024-09-17_10h54.30.561,Signaldetection_experiment,2024.2.1,119.81225371033554,2024-09-17 10h54.39.028359 +0530,
73,0,73,up,0,0.5996707550002611,None,3,73,0,73,0,117.81442455100478,,117.79890530900593,117.81442455100478,118.81677322299947,118.84081215200422,119.43079356300586,up,0,0.5996707550002611,None,3,501695,001,2024-09-17_10h54.30.561,Signaldetection_experiment,2024.2.1,119.81225371033554,2024-09-17 10h54.39.028359 +0530,
74,0,74,up,1,0.6378592280016164,None,0,74,0,74,0,119.44762615200307,,119.43113927200466,119.44762615200307,120.44686007500422,120.46929017900402,121.09027415500168,up,1,0.6378592280016164,None,0,501695,001,2024-09-17_10h54.30.561,Signaldetection_experiment,2024.2.1,119.81225371033554,2024-09-17 10h54.39.028359 +0530,
75,0,75,down,0,0.3939290760026779,None,0,75,0,75,0,121.09890292199998,,121.0906110710057,121.09890292199998,122.0897784810004,122.0897784810004,122.48741137500474,down,0,0.3939290760026779,None,0,501695,001,2024-09-17_10h54.30.561,Signaldetection_experiment,2024.2.1,119.81225371033554,2024-09-17 10h54.39.028359 +0530,
76,0,76,up,1,0.6207145340013085,None,0,76,0,76,0,122.49216281800182,,122.48763564100227,122.49216281800182,123.48043075400346,123.49007143800554,124.11684551500366,up,1,0.6207145340013085,None,0,501695,001,2024-09-17_10h54.30.561,Signaldetection_experiment,2024.2.1,119.81225371033554,2024-09-17 10h54.39.028359 +0530,
77,0,77,up,0,0.4727472919985303,None,3,77,0,77,0,124.13322947599954,,124.11722682600521,124.13322947599954,125.12542761900113,125.14907653500268,125.60087964900595,up,0,0.4727472919985303,None,3,501695,001,2024-09-17_10h54.30.561,Signaldetection_experiment,2024.2.1,119.81225371033554,2024-09-17 10h54.39.028359 +0530,
78,0,78,down,1,0.4671007869983441,None,-2,78,0,78,0,125.61723384400102,,125.60130864600069,125.61723384400102,126.62089526600175,126.64283287800208,127.09710253099911,down,1,0.4671007869983441,None,-2,501695,001,2024-09-17_10h54.30.561,Signaldetection_experiment,2024.2.1,119.81225371033554,2024-09-17 10h54.39.028359 +0530,
79,0,79,up,0,0.6107412109995494,None,2,79,0,79,0,127.11324093700387,,127.09749547899992,127.11324093700387,128.12283604700497,128.12283604700497,128.7421855950015,up,0,0.6107412109995494,None,2,501695,001,2024-09-17_10h54.30.561,Signaldetection_experiment,2024.2.1,119.81225371033554,2024-09-17 10h54.39.028359 +0530,
80,0,80,down,1,0.5205004349991214,None,-5,80,0,80,0,128.76003469800344,,128.7425050880047,128.76003469800344,129.76189667700237,129.78477744100383,130.2873373620023,down,1,0.5205004349991214,None,-5,501695,001,2024-09-17_10h54.30.561,Signaldetection_experiment,2024.2.1,119.81225371033554,2024-09-17 10h54.39.028359 +0530,
81,0,81,down,1,0.6822437249938957,None,4,81,0,81,0,130.29628754700389,,130.28770903900295,130.29628754700389,131.28370770699985,131.29200688600395,131.9764691560049,down,1,0.6822437249938957,None,4,501695,001,2024-09-17_10h54.30.561,Signaldetection_experiment,2024.2.1,119.81225371033554,2024-09-17 10h54.39.028359 +0530,
82,0,82,down,1,0.4606202069990104,None,4,82,0,82,0,131.99381953600096,,131.9767834480008,131.99381953600096,133.00407054200332,133.00407054200332,133.47609176500555,down,1,0.4606202069990104,None,4,501695,001,2024-09-17_10h54.30.561,Signaldetection_experiment,2024.2.1,119.81225371033554,2024-09-17 10h54.39.028359 +0530,
83,0,83,up,0,0.6906220949967974,None,-5,83,0,83,0,133.49469206300273,,133.4763814590042,133.49469206300273,134.5036317289996,134.5036317289996,135.20846953500586,up,0,0.6906220949967974,None,-5,501695,001,2024-09-17_10h54.30.561,Signaldetection_experiment,2024.2.1,119.81225371033554,2024-09-17 10h54.39.028359 +0530,
84,0,84,up,1,0.7113790410003276,None,0,84,0,84,0,135.22522740100248,,135.20880503600347,135.22522740100248,136.2365253300013,136.2365253300013,136.9713096800042,up,1,0.7113790410003276,None,0,501695,001,2024-09-17_10h54.30.561,Signaldetection_experiment,2024.2.1,119.81225371033554,2024-09-17 10h54.39.028359 +0530,
85,0,85,down,0,0.4631905489950441,None,0,85,0,85,0,136.98818205400312,,136.97164104500553,136.98818205400312,137.99571496100543,137.99571496100543,138.47281806100364,down,0,0.4631905489950441,None,0,501695,001,2024-09-17_10h54.30.561,Signaldetection_experiment,2024.2.1,119.81225371033554,2024-09-17 10h54.39.028359 +0530,
86,0,86,down,0,0.6494298109973897,None,0,86,0,86,0,138.48981561500113,,138.47314816799917,138.48981561500113,139.4807834680032,139.50433328300278,140.14462292900134,down,0,0.6494298109973897,None,0,501695,001,2024-09-17_10h54.30.561,Signaldetection_experiment,2024.2.1,119.81225371033554,2024-09-17 10h54.39.028359 +0530,
87,0,87,up,1,0.43479202399612404,None,0,87,0,87,0,140.1614796970025,,140.1449655500037,140.1614796970025,141.14752285100258,141.15831699900446,141.58552701600274,up,1,0.43479202399612404,None,0,501695,001,2024-09-17_10h54.30.561,Signaldetection_experiment,2024.2.1,119.81225371033554,2024-09-17 10h54.39.028359 +0530,
88,0,88,up,1,0.6465729189949343,None,0,88,0,88,0,141.59049866600253,,141.5857551730005,141.59049866600253,142.5784544420021,142.58650815000146,143.2323894910005,up,1,0.6465729189949343,None,0,501695,001,2024-09-17_10h54.30.561,Signaldetection_experiment,2024.2.1,119.81225371033554,2024-09-17 10h54.39.028359 +0530,
89,0,89,up,1,0.6566668329978711,None,0,89,0,89,0,143.23930063399894,,143.23260891500104,143.23930063399894,144.22778697100148,144.23755759300548,144.89113332299894,up,1,0.6566668329978711,None,0,501695,001,2024-09-17_10h54.30.561,Signaldetection_experiment,2024.2.1,119.81225371033554,2024-09-17 10h54.39.028359 +0530,
90,0,90,down,1,0.3265892600029474,None,-2,90,0,90,0,144.8959014630018,,144.89138157900015,144.8959014630018,145.88597930100514,145.89440363100584,146.21537979999994,down,1,0.3265892600029474,None,-2,501695,001,2024-09-17_10h54.30.561,Signaldetection_experiment,2024.2.1,119.81225371033554,2024-09-17 10h54.39.028359 +0530,
91,0,91,up,1,0.5172812980017625,None,0,91,0,91,0,146.22315263700148,,146.21560585500265,146.22315263700148,147.21096200700413,147.219081645002,147.73117219000414,up,1,0.5172812980017625,None,0,501695,001,2024-09-17_10h54.30.561,Signaldetection_experiment,2024.2.1,119.81225371033554,2024-09-17 10h54.39.028359 +0530,
92,0,92,down,1,0.5774104780066409,None,-5,92,0,92,0,147.7366761200028,,147.73142237800494,147.7366761200028,148.72442435999983,148.73292364900408,149.30402872500417,down,1,0.5774104780066409,None,-5,501695,001,2024-09-17_10h54.30.561,Signaldetection_experiment,2024.2.1,119.81225371033554,2024-09-17 10h54.39.028359 +0530,
93,0,93,up,1,0.443788039003266,None,0,93,0,93,0,149.31044458000542,,149.30427454400342,149.31044458000542,150.30056024300575,150.30981527300173,150.74727682700177,up,1,0.443788039003266,None,0,501695,001,2024-09-17_10h54.30.561,Signaldetection_experiment,2024.2.1,119.81225371033554,2024-09-17 10h54.39.028359 +0530,
94,0,94,up,0,0.4973782039960497,None,3,94,0,94,0,150.75315141000465,,150.7475288140049,150.75315141000465,151.74182144299994,151.7499066140008,152.2595083289998,up,0,0.4973782039960497,None,3,501695,001,2024-09-17_10h54.30.561,Signaldetection_experiment,2024.2.1,119.81225371033554,2024-09-17 10h54.39.028359 +0530,
95,0,95,up,0,0.5389035479965969,None,2,95,0,95,0,152.27591788700374,,152.2598082320037,152.27591788700374,153.2529455240001,153.2686941370048,153.79719987000135,up,0,0.5389035479965969,None,2,501695,001,2024-09-17_10h54.30.561,Signaldetection_experiment,2024.2.1,119.81225371033554,2024-09-17 10h54.39.028359 +0530,
96,0,96,down,0,0.5128228419998777,None,0,96,0,96,0,153.80254749800224,,153.7974193859991,153.80254749800224,154.79242072000488,154.79242072000488,155.31431333300134,down,0,0.5128228419998777,None,0,501695,001,2024-09-17_10h54.30.561,Signaldetection_experiment,2024.2.1,119.81225371033554,2024-09-17 10h54.39.028359 +0530,
97,0,97,up,0,0.5353059549961472,None,2,97,0,97,0,155.33192101900204,,155.31463446999987,155.33192101900204,156.3236912430002,156.34679626500292,156.87202449200413,up,0,0.5353059549961472,None,2,501695,001,2024-09-17_10h54.30.561,Signaldetection_experiment,2024.2.1,119.81225371033554,2024-09-17 10h54.39.028359 +0530,
98,0,98,up,1,0.7278327919993899,None,0,98,0,98,0,156.8903938049989,,156.87231723800505,156.8903938049989,157.88086108599964,157.90466572400328,158.6336479610036,up,1,0.7278327919993899,None,0,501695,001,2024-09-17_10h54.30.561,Signaldetection_experiment,2024.2.1,119.81225371033554,2024-09-17 10h54.39.028359 +0530,
99,0,99,down,0,0.32769481300056214,None,0,99,0,99,0,158.64307397400262,,158.6340663650044,158.64307397400262,159.64921559600043,159.64921559600043,159.98505936100264,down,0,0.32769481300056214,None,0,501695,001,2024-09-17_10h54.30.561,Signaldetection_experiment,2024.2.1,119.81225371033554,2024-09-17 10h54.39.028359 +0530,
