pos,corr_resp,thisN,thisTrialN,thisRepN,key_resp.keys,key_resp.corr,key_resp.rt,key_resp.duration,trials.thisRepN,trials.thisTrialN,trials.thisN,trials.thisIndex,trials_2.thisRepN,trials_2.thisTrialN,trials_2.thisN,trials_2.thisIndex,thisRow.t,notes,trial.started,fixation.started,line1.started,line2.started,line3.started,line4.started,fixation.stopped,probe.started,key_resp.started,trial.stopped,trials.key_resp.keys,trials.key_resp.corr,trials.key_resp.rt,trials.key_resp.duration,trials_2.key_resp.keys,trials_2.key_resp.corr,trials_2.key_resp.rt,trials_2.key_resp.duration,participant,session,date,expName,psychopyVersion,frameRate,expStart,
-50,x,0,0,0,x,1,0.6512154299998656,None,0,0,0,0,,,,,0.028719403000650345,,0.015137602000322659,0.028719403000650345,1.0034230399996886,1.0034230399996886,1.0034230399996886,1.0034230399996886,1.0218177959995955,2.000196926001081,2.000196926001081,2.679757158999564,x,1,0.6512154299998656,None,,,,,085369,001,2024-10-14_17h59.26.468,MotorSequenceLearning,2024.2.1,81.93251805026416,2024-10-14 17h59.39.582131 +0530,
150,v,1,1,0,v,1,0.6403135159998783,None,0,1,1,1,,,,,2.701884907000931,,2.680128889000116,2.701884907000931,3.672114363000219,3.672114363000219,3.672114363000219,3.672114363000219,3.6982845479997195,4.6729665719994955,4.6729665719994955,5.318533356999978,v,1,0.6403135159998783,None,,,,,085369,001,2024-10-14_17h59.26.468,MotorSequenceLearning,2024.2.1,81.93251805026416,2024-10-14 17h59.39.582131 +0530,
50,c,2,2,0,c,1,0.8025903670004482,None,0,2,2,2,,,,,5.3296745759998885,,5.3190288149999105,5.3296745759998885,6.331067694000012,6.331067694000012,6.331067694000012,6.331067694000012,6.349078802000804,7.314965273999405,7.314965273999405,8.123209483999744,c,1,0.8025903670004482,None,,,,,085369,001,2024-10-14_17h59.26.468,MotorSequenceLearning,2024.2.1,81.93251805026416,2024-10-14 17h59.39.582131 +0530,
-150,z,3,3,0,z,1,0.42948529299974325,None,0,3,3,3,,,,,8.134778040999663,,8.12353462000101,8.134778040999663,9.123280842000895,9.123280842000895,9.123280842000895,9.123280842000895,9.132898612000645,10.122306462999404,10.122306462999404,10.565512608000063,z,1,0.42948529299974325,None,,,,,085369,001,2024-10-14_17h59.26.468,MotorSequenceLearning,2024.2.1,81.93251805026416,2024-10-14 17h59.39.582131 +0530,
-50,x,4,0,1,x,1,0.6189630890003173,None,1,0,4,0,,,,,10.581339301999833,,10.565837489000842,10.581339301999833,11.555763817999832,11.555763817999832,11.555763817999832,11.555763817999832,11.573423394000201,12.556712374000199,12.556712374000199,13.184779520999655,x,1,0.6189630890003173,None,,,,,085369,001,2024-10-14_17h59.26.468,MotorSequenceLearning,2024.2.1,81.93251805026416,2024-10-14 17h59.39.582131 +0530,
150,v,5,1,1,v,1,0.5901870779998717,None,1,1,5,1,,,,,13.197199370000817,,13.185255399001107,13.197199370000817,14.180964692999623,14.180964692999623,14.180964692999623,14.180964692999623,14.188198420000845,15.189937295999698,15.189937295999698,15.788789367999925,v,1,0.5901870779998717,None,,,,,085369,001,2024-10-14_17h59.26.468,MotorSequenceLearning,2024.2.1,81.93251805026416,2024-10-14 17h59.39.582131 +0530,
50,c,6,2,1,c,1,0.6581945840007393,None,1,2,6,2,,,,,15.801793790000374,,15.789263955000933,15.801793790000374,16.78187724199961,16.78187724199961,16.78187724199961,16.78187724199961,16.798269893000906,17.782549176999964,17.782549176999964,18.45036026100024,c,1,0.6581945840007393,None,,,,,085369,001,2024-10-14_17h59.26.468,MotorSequenceLearning,2024.2.1,81.93251805026416,2024-10-14 17h59.39.582131 +0530,
-150,z,7,3,1,z,1,0.28445504500086827,None,1,3,7,3,,,,,18.462315872000545,,18.450838030999876,18.462315872000545,19.44796198199947,19.44796198199947,19.44796198199947,19.44796198199947,19.45488651100095,20.44918092700027,20.44918092700027,20.74080486999992,z,1,0.28445504500086827,None,,,,,085369,001,2024-10-14_17h59.26.468,MotorSequenceLearning,2024.2.1,81.93251805026416,2024-10-14 17h59.39.582131 +0530,
-50,x,8,0,2,x,1,0.6177939230001357,None,2,0,8,0,,,,,20.750496558001032,,20.741137040000467,20.750496558001032,21.73990072200104,21.73990072200104,21.73990072200104,21.73990072200104,21.74948783900072,22.7390637110002,22.7390637110002,23.367390075000003,x,1,0.6177939230001357,None,,,,,085369,001,2024-10-14_17h59.26.468,MotorSequenceLearning,2024.2.1,81.93251805026416,2024-10-14 17h59.39.582131 +0530,
150,v,9,1,2,v,1,0.6005413309994765,None,2,1,9,1,,,,,23.381195633999596,,23.36788499999966,23.381195633999596,24.364744827000322,24.364744827000322,24.364744827000322,24.364744827000322,24.372095013000944,25.36684811899977,25.36684811899977,25.977201916000922,v,1,0.6005413309994765,None,,,,,085369,001,2024-10-14_17h59.26.468,MotorSequenceLearning,2024.2.1,81.93251805026416,2024-10-14 17h59.39.582131 +0530,
50,c,10,2,2,c,1,0.7242600610006775,None,2,2,10,2,,,,,25.988523968000663,,25.97775063500012,25.988523968000663,26.97241413700067,26.97241413700067,26.97241413700067,26.97241413700067,26.98201567599972,27.97241457600103,27.97241457600103,28.701107283000965,c,1,0.7242600610006775,None,,,,,085369,001,2024-10-14_17h59.26.468,MotorSequenceLearning,2024.2.1,81.93251805026416,2024-10-14 17h59.39.582131 +0530,
-150,z,11,3,2,z,1,0.2940528640010598,None,2,3,11,3,,,,,28.71212852499957,,28.70171749200017,28.71212852499957,29.69741538800008,29.69741538800008,29.69741538800008,29.69741538800008,29.704803705000813,30.698239667000962,30.698239667000962,31.00086010400082,z,1,0.2940528640010598,None,,,,,085369,001,2024-10-14_17h59.26.468,MotorSequenceLearning,2024.2.1,81.93251805026416,2024-10-14 17h59.39.582131 +0530,
-50,x,12,0,3,x,1,0.30166092599938565,None,3,0,12,0,,,,,31.010406082999907,,31.001266393999686,31.010406082999907,32.014738346999366,32.014738346999366,32.014738346999366,32.014738346999366,32.014738346999366,32.99863216800077,32.99863216800077,33.31005803900007,x,1,0.30166092599938565,None,,,,,085369,001,2024-10-14_17h59.26.468,MotorSequenceLearning,2024.2.1,81.93251805026416,2024-10-14 17h59.39.582131 +0530,
150,v,13,1,3,v,1,0.5337269320007181,None,3,1,13,1,,,,,33.32064270199953,,33.31055229000049,33.32064270199953,34.30506747900108,34.30506747900108,34.30506747900108,34.30506747900108,34.314826304000235,35.307129566001095,35.307129566001095,35.86852724200071,v,1,0.5337269320007181,None,,,,,085369,001,2024-10-14_17h59.26.468,MotorSequenceLearning,2024.2.1,81.93251805026416,2024-10-14 17h59.39.582131 +0530,
50,c,14,2,3,c,1,0.774896176000766,None,3,2,14,2,,,,,35.883142144000885,,35.86937661900083,35.883142144000885,36.86461689799944,36.86461689799944,36.86461689799944,36.86461689799944,36.88144719400043,37.87306808299945,37.87306808299945,38.65463097199972,c,1,0.774896176000766,None,,,,,085369,001,2024-10-14_17h59.26.468,MotorSequenceLearning,2024.2.1,81.93251805026416,2024-10-14 17h59.39.582131 +0530,
-150,z,15,3,3,z,1,0.30642156499925477,None,3,3,15,3,,,,,38.66656586300087,,38.65506714900039,38.66656586300087,39.64923410400115,39.64923410400115,39.64923410400115,39.64923410400115,39.65712925600019,40.66518333900058,40.66518333900058,40.98385941000015,z,1,0.30642156499925477,None,,,,,085369,001,2024-10-14_17h59.26.468,MotorSequenceLearning,2024.2.1,81.93251805026416,2024-10-14 17h59.39.582131 +0530,
-50,x,16,0,4,x,1,0.7023375690005196,None,4,0,16,0,,,,,40.998240545000954,,40.984241682001084,40.998240545000954,41.98133343200061,41.98133343200061,41.98133343200061,41.98133343200061,41.988568394999675,42.98168189200078,42.98168189200078,43.69260068999938,x,1,0.7023375690005196,None,,,,,085369,001,2024-10-14_17h59.26.468,MotorSequenceLearning,2024.2.1,81.93251805026416,2024-10-14 17h59.39.582131 +0530,
150,v,17,1,4,v,1,0.4171178670003428,None,4,1,17,1,,,,,43.70400668500042,,43.69331998599955,43.70400668500042,44.6882150700003,44.6882150700003,44.6882150700003,44.6882150700003,44.699020289001055,45.6903481850004,45.6903481850004,46.11719024000013,v,1,0.4171178670003428,None,,,,,085369,001,2024-10-14_17h59.26.468,MotorSequenceLearning,2024.2.1,81.93251805026416,2024-10-14 17h59.39.582131 +0530,
50,c,18,2,4,c,1,0.6566091910008254,None,4,2,18,2,,,,,46.12766771300085,,46.11766166699999,46.12766771300085,47.11408306300109,47.11408306300109,47.11408306300109,47.11408306300109,47.121542984999905,48.13080812999942,48.13080812999942,48.79942535100054,c,1,0.6566091910008254,None,,,,,085369,001,2024-10-14_17h59.26.468,MotorSequenceLearning,2024.2.1,81.93251805026416,2024-10-14 17h59.39.582131 +0530,
-150,z,19,3,4,z,1,0.5317314679996343,None,4,3,19,3,,,,,48.80996677500116,,48.799907423999684,48.80996677500116,49.797978427999624,49.797978427999624,49.797978427999624,49.797978427999624,49.80553263500042,50.81417149899971,50.81417149899971,51.35400935100006,z,1,0.5317314679996343,None,,,,,085369,001,2024-10-14_17h59.26.468,MotorSequenceLearning,2024.2.1,81.93251805026416,2024-10-14 17h59.39.582131 +0530,
-50,x,20,0,5,x,1,0.6194599840000592,None,5,0,20,0,,,,,51.367640958000266,,51.354489028999524,51.367640958000266,52.347539763000896,52.347539763000896,52.347539763000896,52.347539763000896,52.364377948000765,53.35050891100036,53.35050891100036,53.97683342399978,x,1,0.6194599840000592,None,,,,,085369,001,2024-10-14_17h59.26.468,MotorSequenceLearning,2024.2.1,81.93251805026416,2024-10-14 17h59.39.582131 +0530,
150,v,21,1,5,v,1,0.758216406999054,None,5,1,21,1,,,,,53.98753698600012,,53.97745235399998,53.98753698600012,54.97147476800092,54.97147476800092,54.97147476800092,54.97147476800092,54.981382686999495,55.972126994000064,55.972126994000064,56.734651839000435,v,1,0.758216406999054,None,,,,,085369,001,2024-10-14_17h59.26.468,MotorSequenceLearning,2024.2.1,81.93251805026416,2024-10-14 17h59.39.582131 +0530,
50,c,22,2,5,c,1,0.643732878001174,None,5,2,22,2,,,,,56.74651850600094,,56.73514339299982,56.74651850600094,57.73084695800026,57.73084695800026,57.73084695800026,57.73084695800026,57.738004344999354,58.731176882,58.731176882,59.385115786000824,c,1,0.643732878001174,None,,,,,085369,001,2024-10-14_17h59.26.468,MotorSequenceLearning,2024.2.1,81.93251805026416,2024-10-14 17h59.39.582131 +0530,
-150,z,23,3,5,z,1,0.27300901300077385,None,5,3,23,3,,,,,59.39766125400092,,59.38561446700078,59.39766125400092,60.38060359799965,60.38060359799965,60.38060359799965,60.38060359799965,60.38804110700039,61.38052244299979,61.38052244299979,61.66707454400057,z,1,0.27300901300077385,None,,,,,085369,001,2024-10-14_17h59.26.468,MotorSequenceLearning,2024.2.1,81.93251805026416,2024-10-14 17h59.39.582131 +0530,
-50,x,24,0,6,x,1,0.640442242998688,None,6,0,24,0,,,,,61.67906534500071,,61.66767696900024,61.67906534500071,62.66395030900094,62.66395030900094,62.66395030900094,62.66395030900094,62.67109222900035,63.66787397299959,63.66787397299959,64.31721578100041,x,1,0.640442242998688,None,,,,,085369,001,2024-10-14_17h59.26.468,MotorSequenceLearning,2024.2.1,81.93251805026416,2024-10-14 17h59.39.582131 +0530,
150,v,25,1,6,v,1,0.5607784829990123,None,6,1,25,1,,,,,64.32965550300105,,64.31776842,64.32965550300105,65.31479843200032,65.31479843200032,65.31479843200032,65.31479843200032,65.32230315500055,66.31461876799949,66.31461876799949,66.88242260100014,v,1,0.5607784829990123,None,,,,,085369,001,2024-10-14_17h59.26.468,MotorSequenceLearning,2024.2.1,81.93251805026416,2024-10-14 17h59.39.582131 +0530,
50,c,26,2,6,c,1,0.5646992589990987,None,6,2,26,2,,,,,66.89327235600103,,66.88285748700036,66.89327235600103,67.88083749600082,67.88083749600082,67.88083749600082,67.88083749600082,67.88816059400051,68.88027896499989,68.88027896499989,69.45006546399964,c,1,0.5646992589990987,None,,,,,085369,001,2024-10-14_17h59.26.468,MotorSequenceLearning,2024.2.1,81.93251805026416,2024-10-14 17h59.39.582131 +0530,
-150,z,27,3,6,z,1,0.4333024729985482,None,6,3,27,3,,,,,69.46363881599973,,69.45064754899977,69.46363881599973,70.4471073069999,70.4471073069999,70.4471073069999,70.4471073069999,70.45426867700007,71.44705360199987,71.44705360199987,71.88504542800001,z,1,0.4333024729985482,None,,,,,085369,001,2024-10-14_17h59.26.468,MotorSequenceLearning,2024.2.1,81.93251805026416,2024-10-14 17h59.39.582131 +0530,
-50,x,28,0,7,x,1,0.4016599530004896,None,7,0,28,0,,,,,71.89669768500062,,71.88552854500085,71.89669768500062,72.8822589370011,72.8822589370011,72.8822589370011,72.8822589370011,72.88970364899978,73.88161851500081,73.88161851500081,74.29227417599941,x,1,0.4016599530004896,None,,,,,085369,001,2024-10-14_17h59.26.468,MotorSequenceLearning,2024.2.1,81.93251805026416,2024-10-14 17h59.39.582131 +0530,
150,v,29,1,7,v,1,0.5040029179999692,None,7,1,29,1,,,,,74.30334245599988,,74.29293986700031,74.30334245599988,75.28774408100071,75.28774408100071,75.28774408100071,75.28774408100071,75.29706862300009,76.2885138849997,76.2885138849997,76.80233043699991,v,1,0.5040029179999692,None,,,,,085369,001,2024-10-14_17h59.26.468,MotorSequenceLearning,2024.2.1,81.93251805026416,2024-10-14 17h59.39.582131 +0530,
50,c,30,2,7,c,1,0.618301311000323,None,7,2,30,2,,,,,76.81385731999944,,76.80280567999944,76.81385731999944,77.79761134600085,77.79761134600085,77.79761134600085,77.79761134600085,77.80416801799947,78.7971148609995,78.7971148609995,79.42484291400069,c,1,0.618301311000323,None,,,,,085369,001,2024-10-14_17h59.26.468,MotorSequenceLearning,2024.2.1,81.93251805026416,2024-10-14 17h59.39.582131 +0530,
-150,z,31,3,7,z,1,0.5427479009995295,None,7,3,31,3,,,,,79.43586050200065,,79.4254155510007,79.43586050200065,80.42159538600026,80.42159538600026,80.42159538600026,80.42159538600026,80.4318960239998,81.42190192099952,81.42190192099952,81.96874728200055,z,1,0.5427479009995295,None,,,,,085369,001,2024-10-14_17h59.26.468,MotorSequenceLearning,2024.2.1,81.93251805026416,2024-10-14 17h59.39.582131 +0530,
-50,x,32,0,8,x,1,0.6236504240005161,None,8,0,32,0,,,,,81.97986347000005,,81.96914964899952,81.97986347000005,82.9640523270009,82.9640523270009,82.9640523270009,82.9640523270009,82.97135408900067,83.96454729600009,83.96454729600009,84.59896176300026,x,1,0.6236504240005161,None,,,,,085369,001,2024-10-14_17h59.26.468,MotorSequenceLearning,2024.2.1,81.93251805026416,2024-10-14 17h59.39.582131 +0530,
150,v,33,1,8,v,1,0.39619755300009274,None,8,1,33,1,,,,,84.61363200999949,,84.59954211900003,84.61363200999949,85.59900974499942,85.59900974499942,85.59900974499942,85.59900974499942,85.6156703050001,86.59929273300077,86.59929273300077,87.01746480499969,v,1,0.39619755300009274,None,,,,,085369,001,2024-10-14_17h59.26.468,MotorSequenceLearning,2024.2.1,81.93251805026416,2024-10-14 17h59.39.582131 +0530,
50,c,34,2,8,c,1,0.4989197279992368,None,8,2,34,2,,,,,87.03046678899955,,87.0180708629996,87.03046678899955,88.01407296800062,88.01407296800062,88.01407296800062,88.01407296800062,88.0213615900011,89.01507050100008,89.01507050100008,89.51709261699943,c,1,0.4989197279992368,None,,,,,085369,001,2024-10-14_17h59.26.468,MotorSequenceLearning,2024.2.1,81.93251805026416,2024-10-14 17h59.39.582131 +0530,
-150,z,35,3,8,z,1,0.38831550599934417,None,8,3,35,3,,,,,89.52781582500029,,89.51763584900073,89.52781582500029,90.52165256700027,90.52165256700027,90.52165256700027,90.52165256700027,90.52165256700027,91.53085788399949,91.53085788399949,91.92316365599982,z,1,0.38831550599934417,None,,,,,085369,001,2024-10-14_17h59.26.468,MotorSequenceLearning,2024.2.1,81.93251805026416,2024-10-14 17h59.39.582131 +0530,
-50,x,36,0,9,x,1,0.6278878360008093,None,9,0,36,0,,,,,91.93389342000046,,91.9235801270006,91.93389342000046,92.92134921199977,92.92134921199977,92.92134921199977,92.92134921199977,92.93072821100031,93.9220726349995,93.9220726349995,94.56007663200035,x,1,0.6278878360008093,None,,,,,085369,001,2024-10-14_17h59.26.468,MotorSequenceLearning,2024.2.1,81.93251805026416,2024-10-14 17h59.39.582131 +0530,
150,v,37,1,9,v,1,0.5404863029998523,None,9,1,37,1,,,,,94.57187731900012,,94.56084466900029,94.57187731900012,95.55416415400032,95.55416415400032,95.55416415400032,95.55416415400032,95.57106768300036,96.55667583000104,96.55667583000104,97.11619570100083,v,1,0.5404863029998523,None,,,,,085369,001,2024-10-14_17h59.26.468,MotorSequenceLearning,2024.2.1,81.93251805026416,2024-10-14 17h59.39.582131 +0530,
50,c,38,2,9,c,1,0.26346473599915043,None,9,2,38,2,,,,,97.13007427199955,,97.1168081779997,97.13007427199955,98.11430393500086,98.11430393500086,98.11430393500086,98.11430393500086,98.12209854600042,99.11425701500048,99.11425701500048,99.39919187800115,c,1,0.26346473599915043,None,,,,,085369,001,2024-10-14_17h59.26.468,MotorSequenceLearning,2024.2.1,81.93251805026416,2024-10-14 17h59.39.582131 +0530,
-150,z,39,3,9,z,1,0.23319947799973306,None,9,3,39,3,,,,,99.41345791499953,,99.39978580000025,99.41345791499953,100.39725593000003,100.39725593000003,100.39725593000003,100.39725593000003,100.404847496,101.396006201001,101.396006201001,101.6330525379999,z,1,0.23319947799973306,None,,,,,085369,001,2024-10-14_17h59.26.468,MotorSequenceLearning,2024.2.1,81.93251805026416,2024-10-14 17h59.39.582131 +0530,
-50,x,40,0,10,x,1,0.6304609009985143,None,10,0,40,0,,,,,101.64660600100069,,101.63371245300004,101.64660600100069,102.6304322190008,102.6304322190008,102.6304322190008,102.6304322190008,102.63758206199964,103.6407769890011,103.6407769890011,104.27923901600116,x,1,0.6304609009985143,None,,,,,085369,001,2024-10-14_17h59.26.468,MotorSequenceLearning,2024.2.1,81.93251805026416,2024-10-14 17h59.39.582131 +0530,
150,v,41,1,10,v,1,0.2790954669999337,None,10,1,41,1,,,,,104.29172574800032,,104.27972608799973,104.29172574800032,105.28051715400034,105.28051715400034,105.28051715400034,105.28051715400034,105.28771169299944,106.27137203500024,106.27137203500024,106.56816569799958,v,1,0.2790954669999337,None,,,,,085369,001,2024-10-14_17h59.26.468,MotorSequenceLearning,2024.2.1,81.93251805026416,2024-10-14 17h59.39.582131 +0530,
50,c,42,2,10,c,1,0.40429158700135304,None,10,2,42,2,,,,,106.58213280200107,,106.56875929399939,106.58213280200107,107.56567072100006,107.56567072100006,107.56567072100006,107.56567072100006,107.58036293300029,108.56483900999956,108.56483900999956,108.98255000000063,c,1,0.40429158700135304,None,,,,,085369,001,2024-10-14_17h59.26.468,MotorSequenceLearning,2024.2.1,81.93251805026416,2024-10-14 17h59.39.582131 +0530,
-150,z,43,3,10,z,1,0.29909960700024385,None,10,3,43,3,,,,,108.99346378799964,,108.98303827200107,108.99346378799964,109.99635258499984,109.99635258499984,109.99635258499984,109.99635258499984,110.0144173610006,110.98422387699975,110.98422387699975,111.2991630810011,z,1,0.29909960700024385,None,,,,,085369,001,2024-10-14_17h59.26.468,MotorSequenceLearning,2024.2.1,81.93251805026416,2024-10-14 17h59.39.582131 +0530,
-50,x,44,0,11,x,1,0.8165395939995506,None,11,0,44,0,,,,,111.31124979100059,,111.29960009200113,111.31124979100059,112.29742237600112,112.29742237600112,112.29742237600112,112.29742237600112,112.3068693740006,113.31300915199972,113.31300915199972,114.1487938299997,x,1,0.8165395939995506,None,,,,,085369,001,2024-10-14_17h59.26.468,MotorSequenceLearning,2024.2.1,81.93251805026416,2024-10-14 17h59.39.582131 +0530,
150,v,45,1,11,v,1,0.35111648599922773,None,11,1,45,1,,,,,114.1636812529996,,114.1492792780009,114.1636812529996,115.13890936200005,115.13890936200005,115.13890936200005,115.13890936200005,115.18085604599946,116.14680824900097,116.14680824900097,116.51020339100069,v,1,0.35111648599922773,None,,,,,085369,001,2024-10-14_17h59.26.468,MotorSequenceLearning,2024.2.1,81.93251805026416,2024-10-14 17h59.39.582131 +0530,
50,c,46,2,11,c,1,0.2546235770005296,None,11,2,46,2,,,,,116.52254376400015,,116.51092980999965,116.52254376400015,117.50404007500038,117.50404007500038,117.50404007500038,117.50404007500038,117.52143617299953,118.5075770580006,118.5075770580006,118.76619070000015,c,1,0.2546235770005296,None,,,,,085369,001,2024-10-14_17h59.26.468,MotorSequenceLearning,2024.2.1,81.93251805026416,2024-10-14 17h59.39.582131 +0530,
-150,z,47,3,11,z,1,0.2446364760016877,None,11,3,47,3,,,,,118.77992815300058,,118.76680769700033,118.77992815300058,119.76426233500024,119.76426233500024,119.76426233500024,119.76426233500024,119.77251946199976,120.76425181800005,120.76425181800005,121.01991281600021,z,1,0.2446364760016877,None,,,,,085369,001,2024-10-14_17h59.26.468,MotorSequenceLearning,2024.2.1,81.93251805026416,2024-10-14 17h59.39.582131 +0530,
-50,x,48,0,12,x,1,0.5411182269999699,None,12,0,48,0,,,,,121.03305807600009,,121.02067140700092,121.03305807600009,122.01473973800057,122.01473973800057,122.01473973800057,122.01473973800057,122.03229956500036,123.01376489900031,123.01376489900031,123.56609585800106,x,1,0.5411182269999699,None,,,,,085369,001,2024-10-14_17h59.26.468,MotorSequenceLearning,2024.2.1,81.93251805026416,2024-10-14 17h59.39.582131 +0530,
150,v,49,1,12,v,1,0.33026852299917664,None,12,1,49,1,,,,,123.57668757000101,,123.56664652200016,123.57668757000101,124.56287839800098,124.56287839800098,124.56287839800098,124.56287839800098,124.57024609700056,125.5638715540008,125.5638715540008,125.90079039800003,v,1,0.33026852299917664,None,,,,,085369,001,2024-10-14_17h59.26.468,MotorSequenceLearning,2024.2.1,81.93251805026416,2024-10-14 17h59.39.582131 +0530,
50,c,50,2,12,c,1,0.3162097050008015,None,12,2,50,2,,,,,125.91296100200088,,125.90126883899939,125.91296100200088,126.91525179500059,126.91525179500059,126.91525179500059,126.91525179500059,126.91525179500059,127.91273402800107,127.91273402800107,128.23305136899944,c,1,0.3162097050008015,None,,,,,085369,001,2024-10-14_17h59.26.468,MotorSequenceLearning,2024.2.1,81.93251805026416,2024-10-14 17h59.39.582131 +0530,
-150,z,51,3,12,z,1,0.3291493269989587,None,12,3,51,3,,,,,128.24602398200113,,128.2335388600004,128.24602398200113,129.22971440199944,129.22971440199944,129.22971440199944,129.22971440199944,129.23677471600058,130.23202862200014,130.23202862200014,130.56888223200076,z,1,0.3291493269989587,None,,,,,085369,001,2024-10-14_17h59.26.468,MotorSequenceLearning,2024.2.1,81.93251805026416,2024-10-14 17h59.39.582131 +0530,
-50,x,52,0,13,x,1,0.5005350970004656,None,13,0,52,0,,,,,130.58563554800094,,130.56936178599972,130.58563554800094,131.56287449800038,131.56287449800038,131.56287449800038,131.56287449800038,131.58011279099992,132.57935734300008,132.57935734300008,133.08269432199995,x,1,0.5005350970004656,None,,,,,085369,001,2024-10-14_17h59.26.468,MotorSequenceLearning,2024.2.1,81.93251805026416,2024-10-14 17h59.39.582131 +0530,
150,v,53,1,13,v,1,0.35086166800101637,None,13,1,53,1,,,,,133.09246487699966,,133.0831612990005,133.09246487699966,134.079715752001,134.079715752001,134.079715752001,134.079715752001,134.08709886500037,135.0801969590011,135.0801969590011,135.44678458899944,v,1,0.35086166800101637,None,,,,,085369,001,2024-10-14_17h59.26.468,MotorSequenceLearning,2024.2.1,81.93251805026416,2024-10-14 17h59.39.582131 +0530,
50,c,54,2,13,c,1,0.34860641100021894,None,13,2,54,2,,,,,135.45373456900052,,135.4472772270001,135.45373456900052,136.4383289289999,136.4383289289999,136.4383289289999,136.4383289289999,136.44784936500037,137.43773888900068,137.43773888900068,137.79100869899958,c,1,0.34860641100021894,None,,,,,085369,001,2024-10-14_17h59.26.468,MotorSequenceLearning,2024.2.1,81.93251805026416,2024-10-14 17h59.39.582131 +0530,
-150,z,55,3,13,z,1,0.2240106070003094,None,13,3,55,3,,,,,137.80139044799944,,137.79148804100078,137.80139044799944,138.78860486700069,138.78860486700069,138.78860486700069,138.78860486700069,138.8126846340001,139.78284318700025,139.78284318700025,140.01540906400078,z,1,0.2240106070003094,None,,,,,085369,001,2024-10-14_17h59.26.468,MotorSequenceLearning,2024.2.1,81.93251805026416,2024-10-14 17h59.39.582131 +0530,
-50,x,56,0,14,x,1,0.6015517409996392,None,14,0,56,0,,,,,140.02572516600048,,140.01596840800084,140.02572516600048,141.0127824350002,141.0127824350002,141.0127824350002,141.0127824350002,141.01922489699973,142.0291680070004,142.0291680070004,142.63353865799945,x,1,0.6015517409996392,None,,,,,085369,001,2024-10-14_17h59.26.468,MotorSequenceLearning,2024.2.1,81.93251805026416,2024-10-14 17h59.39.582131 +0530,
150,v,57,1,14,v,1,0.275880651000989,None,14,1,57,1,,,,,142.64454931699947,,142.63391101100024,142.64454931699947,143.6322709190008,143.6322709190008,143.6322709190008,143.6322709190008,143.64865702799943,144.63038958400102,144.63038958400102,144.915979495001,v,1,0.275880651000989,None,,,,,085369,001,2024-10-14_17h59.26.468,MotorSequenceLearning,2024.2.1,81.93251805026416,2024-10-14 17h59.39.582131 +0530,
50,c,58,2,14,c,1,0.4912852199995541,None,14,2,58,2,,,,,144.92789863300095,,144.91653478700027,144.92789863300095,145.912771411,145.912771411,145.912771411,145.912771411,145.91995606800083,146.91370180500053,146.91370180500053,147.40907563200017,c,1,0.4912852199995541,None,,,,,085369,001,2024-10-14_17h59.26.468,MotorSequenceLearning,2024.2.1,81.93251805026416,2024-10-14 17h59.39.582131 +0530,
-150,z,59,3,14,z,1,0.25383775400041486,None,14,3,59,3,,,,,147.4199471640004,,147.40969655499975,147.4199471640004,148.40365347099942,148.40365347099942,148.40365347099942,148.40365347099942,148.41396134500064,149.41316679299962,149.41316679299962,149.6819100089997,z,1,0.25383775400041486,None,,,,,085369,001,2024-10-14_17h59.26.468,MotorSequenceLearning,2024.2.1,81.93251805026416,2024-10-14 17h59.39.582131 +0530,
-50,x,60,0,15,x,1,0.5233473309999681,None,15,0,60,0,,,,,149.69332872199993,,149.68238909200045,149.69332872199993,150.68020765599977,150.68020765599977,150.68020765599977,150.68020765599977,150.6878690020003,151.67981730300016,151.67981730300016,152.2078869729994,x,1,0.5233473309999681,None,,,,,085369,001,2024-10-14_17h59.26.468,MotorSequenceLearning,2024.2.1,81.93251805026416,2024-10-14 17h59.39.582131 +0530,
150,v,61,1,15,v,1,0.2597878060005314,None,15,1,61,1,,,,,152.21853627699966,,152.20853547000115,152.21853627699966,153.20394946099987,153.20394946099987,153.20394946099987,153.20394946099987,153.21348682499956,154.2051372090009,154.2051372090009,154.48000895400037,v,1,0.2597878060005314,None,,,,,085369,001,2024-10-14_17h59.26.468,MotorSequenceLearning,2024.2.1,81.93251805026416,2024-10-14 17h59.39.582131 +0530,
50,c,62,2,15,c,1,0.33800234899899806,None,15,2,62,2,,,,,154.48652754199975,,154.48046199300006,154.48652754199975,155.47027341099965,155.47027341099965,155.47027341099965,155.47027341099965,155.4801906720004,156.47048170500057,156.47048170500057,156.81553855499988,c,1,0.33800234899899806,None,,,,,085369,001,2024-10-14_17h59.26.468,MotorSequenceLearning,2024.2.1,81.93251805026416,2024-10-14 17h59.39.582131 +0530,
-150,z,63,3,15,z,1,0.24656380700071168,None,15,3,63,3,,,,,156.82735207000042,,156.81602999499955,156.82735207000042,157.81279274100052,157.81279274100052,157.81279274100052,157.81279274100052,157.82035062000068,158.8141103680009,158.8141103680009,159.0670269300008,z,1,0.24656380700071168,None,,,,,085369,001,2024-10-14_17h59.26.468,MotorSequenceLearning,2024.2.1,81.93251805026416,2024-10-14 17h59.39.582131 +0530,
-50,x,64,0,16,x,1,0.33083808600167686,None,16,0,64,0,,,,,159.07840309899984,,159.0675057240005,159.07840309899984,160.07922044800034,160.07922044800034,160.07922044800034,160.07922044800034,160.0968490489995,161.06997753500036,161.06997753500036,161.41506044200105,x,1,0.33083808600167686,None,,,,,085369,001,2024-10-14_17h59.26.468,MotorSequenceLearning,2024.2.1,81.93251805026416,2024-10-14 17h59.39.582131 +0530,
150,v,65,1,16,v,1,0.3460649460012064,None,16,1,65,1,,,,,161.4276390039995,,161.41557340100007,161.4276390039995,162.4129521470004,162.4129521470004,162.4129521470004,162.4129521470004,162.42054052599997,163.41279688000031,163.41279688000031,163.76569395099978,v,1,0.3460649460012064,None,,,,,085369,001,2024-10-14_17h59.26.468,MotorSequenceLearning,2024.2.1,81.93251805026416,2024-10-14 17h59.39.582131 +0530,
50,c,66,2,16,c,1,0.34074301199871115,None,16,2,66,2,,,,,163.77868227200088,,163.76628993899976,163.77868227200088,164.763099187001,164.763099187001,164.763099187001,164.763099187001,164.7706738859997,165.76489895800114,165.76489895800114,166.1148649580009,c,1,0.34074301199871115,None,,,,,085369,001,2024-10-14_17h59.26.468,MotorSequenceLearning,2024.2.1,81.93251805026416,2024-10-14 17h59.39.582131 +0530,
-150,z,67,3,16,z,1,0.29406882200055406,None,16,3,67,3,,,,,166.12519981200057,,166.1152791830009,166.12519981200057,167.11185186900002,167.11185186900002,167.11185186900002,167.11185186900002,167.11990243400032,168.11324031000004,168.11324031000004,168.41765578800005,z,1,0.29406882200055406,None,,,,,085369,001,2024-10-14_17h59.26.468,MotorSequenceLearning,2024.2.1,81.93251805026416,2024-10-14 17h59.39.582131 +0530,
-50,x,68,0,17,x,1,0.4027183980015252,None,17,0,68,0,,,,,168.42856914500044,,168.41808119800044,168.42856914500044,169.41260578999936,169.41260578999936,169.41260578999936,169.41260578999936,169.41987760499978,170.42882111400104,170.42882111400104,170.84122329800084,x,1,0.4027183980015252,None,,,,,085369,001,2024-10-14_17h59.26.468,MotorSequenceLearning,2024.2.1,81.93251805026416,2024-10-14 17h59.39.582131 +0530,
150,v,69,1,17,v,1,0.2912023160006356,None,17,1,69,1,,,,,170.8525454640003,,170.8417475589995,170.8525454640003,171.8369687079994,171.8369687079994,171.8369687079994,171.8369687079994,171.84638149800048,172.83658580100018,172.83658580100018,173.13181052000073,v,1,0.2912023160006356,None,,,,,085369,001,2024-10-14_17h59.26.468,MotorSequenceLearning,2024.2.1,81.93251805026416,2024-10-14 17h59.39.582131 +0530,
50,c,70,2,17,c,1,0.3189133839987335,None,17,2,70,2,,,,,173.14401821499996,,173.13228663100017,173.14401821499996,174.12925847000042,174.12925847000042,174.12925847000042,174.12925847000042,174.13674256800005,175.13065067000025,175.13065067000025,175.4530911010006,c,1,0.3189133839987335,None,,,,,085369,001,2024-10-14_17h59.26.468,MotorSequenceLearning,2024.2.1,81.93251805026416,2024-10-14 17h59.39.582131 +0530,
-150,z,71,3,17,z,1,0.2481795610001427,None,17,3,71,3,,,,,175.46531524199963,,175.45372763100022,175.46531524199963,176.45341726399965,176.45341726399965,176.45341726399965,176.45341726399965,176.46283265700004,177.4624566599996,177.4624566599996,177.7157298759994,z,1,0.2481795610001427,None,,,,,085369,001,2024-10-14_17h59.26.468,MotorSequenceLearning,2024.2.1,81.93251805026416,2024-10-14 17h59.39.582131 +0530,
-50,x,72,0,18,x,1,0.34491742299906036,None,18,0,72,0,,,,,177.72704666900063,,177.7162208160007,177.72704666900063,178.712465179,178.712465179,178.712465179,178.712465179,178.71962454999993,179.71292293400074,179.71292293400074,180.06475449699974,x,1,0.34491742299906036,None,,,,,085369,001,2024-10-14_17h59.26.468,MotorSequenceLearning,2024.2.1,81.93251805026416,2024-10-14 17h59.39.582131 +0530,
150,v,73,1,18,v,1,0.30110296400016523,None,18,1,73,1,,,,,180.07448708800075,,180.06517301799977,180.07448708800075,181.06270585399943,181.06270585399943,181.06270585399943,181.06270585399943,181.0696757530004,182.06363640600102,182.06363640600102,182.3678347010009,v,1,0.30110296400016523,None,,,,,085369,001,2024-10-14_17h59.26.468,MotorSequenceLearning,2024.2.1,81.93251805026416,2024-10-14 17h59.39.582131 +0530,
50,c,74,2,18,c,1,0.3730594690005091,None,18,2,74,2,,,,,182.3786949080004,,182.3684142660004,182.3786949080004,183.36296790100096,183.36296790100096,183.36296790100096,183.36296790100096,183.37014737900063,184.3622192290004,184.3622192290004,184.74881456299954,c,1,0.3730594690005091,None,,,,,085369,001,2024-10-14_17h59.26.468,MotorSequenceLearning,2024.2.1,81.93251805026416,2024-10-14 17h59.39.582131 +0530,
-150,z,75,3,18,z,1,0.24232233600014297,None,18,3,75,3,,,,,184.76041735299987,,184.74929056700057,184.76041735299987,185.745662790001,185.745662790001,185.745662790001,185.745662790001,185.75279944500107,186.74546086100054,186.74546086100054,187.00134220600012,z,1,0.24232233600014297,None,,,,,085369,001,2024-10-14_17h59.26.468,MotorSequenceLearning,2024.2.1,81.93251805026416,2024-10-14 17h59.39.582131 +0530,
-50,x,76,0,19,x,1,0.5127192849995481,None,19,0,76,0,,,,,187.01231180000104,,187.00175712300006,187.01231180000104,188.01184654200006,188.01184654200006,188.01184654200006,188.01184654200006,188.0290749320011,188.9970823599997,188.9970823599997,189.51815257700036,x,1,0.5127192849995481,None,,,,,085369,001,2024-10-14_17h59.26.468,MotorSequenceLearning,2024.2.1,81.93251805026416,2024-10-14 17h59.39.582131 +0530,
150,v,77,1,19,v,1,0.30003395499988983,None,19,1,77,1,,,,,189.54566764800074,,189.5186371990003,189.54566764800074,190.51153664900085,190.51153664900085,190.51153664900085,190.51153664900085,190.53526630499982,191.52897993499937,191.52897993499937,191.83247171999938,v,1,0.30003395499988983,None,,,,,085369,001,2024-10-14_17h59.26.468,MotorSequenceLearning,2024.2.1,81.93251805026416,2024-10-14 17h59.39.582131 +0530,
50,c,78,2,19,c,1,0.2828029720003542,None,19,2,78,2,,,,,191.84411898899998,,191.83312764199945,191.84411898899998,192.82879290500023,192.82879290500023,192.82879290500023,192.82879290500023,192.83592047099955,193.82960314500087,193.82960314500087,194.11607014000037,c,1,0.2828029720003542,None,,,,,085369,001,2024-10-14_17h59.26.468,MotorSequenceLearning,2024.2.1,81.93251805026416,2024-10-14 17h59.39.582131 +0530,
-150,z,79,3,19,z,1,0.2704913649995433,None,19,3,79,3,,,,,194.12823342900083,,194.1167139450008,194.12823342900083,195.111385608001,195.111385608001,195.111385608001,195.111385608001,195.1193299480001,196.11427669600016,196.11427669600016,196.39680957100063,z,1,0.2704913649995433,None,,,,,085369,001,2024-10-14_17h59.26.468,MotorSequenceLearning,2024.2.1,81.93251805026416,2024-10-14 17h59.39.582131 +0530,
-50,x,80,0,20,x,1,0.2569904259999021,None,20,0,80,0,,,,,196.40700265800115,,196.3973078479994,196.40700265800115,197.39576592900085,197.39576592900085,197.39576592900085,197.39576592900085,197.40283522800019,198.3880958310001,198.3880958310001,198.64952981699935,x,1,0.2569904259999021,None,,,,,085369,001,2024-10-14_17h59.26.468,MotorSequenceLearning,2024.2.1,81.93251805026416,2024-10-14 17h59.39.582131 +0530,
150,v,81,1,20,v,1,0.2764919759993063,None,20,1,81,1,,,,,198.66231987799983,,198.65001282199955,198.66231987799983,199.64634131899948,199.64634131899948,199.64634131899948,199.64634131899948,199.65377791900028,200.66191176600114,200.66191176600114,200.94342617800066,v,1,0.2764919759993063,None,,,,,085369,001,2024-10-14_17h59.26.468,MotorSequenceLearning,2024.2.1,81.93251805026416,2024-10-14 17h59.39.582131 +0530,
50,c,82,2,20,c,1,0.21433874099966488,None,20,2,82,2,,,,,200.95574806399964,,200.94399798599989,200.95574806399964,201.9376734870002,201.9376734870002,201.9376734870002,201.9376734870002,201.980045581,202.9629186279999,202.9629186279999,203.18108443700112,c,1,0.21433874099966488,None,,,,,085369,001,2024-10-14_17h59.26.468,MotorSequenceLearning,2024.2.1,81.93251805026416,2024-10-14 17h59.39.582131 +0530,
-150,z,83,3,20,z,1,0.11573397500069404,None,20,3,83,3,,,,,203.1914895760001,,203.1814548780003,203.1914895760001,204.1788635060002,204.1788635060002,204.1788635060002,204.1788635060002,204.186418452,205.1788397700002,205.1788397700002,205.30114747600055,z,1,0.11573397500069404,None,,,,,085369,001,2024-10-14_17h59.26.468,MotorSequenceLearning,2024.2.1,81.93251805026416,2024-10-14 17h59.39.582131 +0530,
-50,x,84,0,21,x,1,0.37592355400011,None,21,0,84,0,,,,,205.32790209700033,,205.3015644420011,205.32790209700033,206.2961762750001,206.2961762750001,206.2961762750001,206.2961762750001,206.34604159800074,207.2976936619998,207.2976936619998,207.68367142500028,x,1,0.37592355400011,None,,,,,085369,001,2024-10-14_17h59.26.468,MotorSequenceLearning,2024.2.1,81.93251805026416,2024-10-14 17h59.39.582131 +0530,
150,v,85,1,21,v,1,0.27304327199999534,None,21,1,85,1,,,,,207.69749257500007,,207.68414542500068,207.69749257500007,208.6786337350004,208.6786337350004,208.6786337350004,208.6786337350004,208.69648371199946,209.68673248699997,209.68673248699997,209.9661684929997,v,1,0.27304327199999534,None,,,,,085369,001,2024-10-14_17h59.26.468,MotorSequenceLearning,2024.2.1,81.93251805026416,2024-10-14 17h59.39.582131 +0530,
50,c,86,2,21,c,1,0.30091630200149666,None,21,2,86,2,,,,,209.97810396100067,,209.96664212500036,209.97810396100067,210.96220734500093,210.96220734500093,210.96220734500093,210.96220734500093,210.97030304600048,211.97999325800083,211.97999325800083,212.28959974899954,c,1,0.30091630200149666,None,,,,,085369,001,2024-10-14_17h59.26.468,MotorSequenceLearning,2024.2.1,81.93251805026416,2024-10-14 17h59.39.582131 +0530,
-150,z,87,3,21,z,1,0.22946828499880212,None,21,3,87,3,,,,,212.30069013499997,,212.29007286399974,212.30069013499997,213.286030493,213.286030493,213.286030493,213.286030493,213.29612405900116,214.2871409670006,214.2871409670006,214.5196495979999,z,1,0.22946828499880212,None,,,,,085369,001,2024-10-14_17h59.26.468,MotorSequenceLearning,2024.2.1,81.93251805026416,2024-10-14 17h59.39.582131 +0530,
-50,x,88,0,22,x,1,0.2565235370002483,None,22,0,88,0,,,,,214.53107826999985,,214.52016830700086,214.53107826999985,215.51228654400074,215.51228654400074,215.51228654400074,215.51228654400074,215.5297709839997,216.52810989799946,216.52810989799946,216.79891115600003,x,1,0.2565235370002483,None,,,,,085369,001,2024-10-14_17h59.26.468,MotorSequenceLearning,2024.2.1,81.93251805026416,2024-10-14 17h59.39.582131 +0530,
150,v,89,1,22,v,1,0.26759302299979026,None,22,1,89,1,,,,,216.81006731399975,,216.79939267200098,216.81006731399975,217.81140443799995,217.81140443799995,217.81140443799995,217.81140443799995,217.82937022400074,218.81226795099974,218.81226795099974,219.08294224699966,v,1,0.26759302299979026,None,,,,,085369,001,2024-10-14_17h59.26.468,MotorSequenceLearning,2024.2.1,81.93251805026416,2024-10-14 17h59.39.582131 +0530,
50,c,90,2,22,c,1,0.2897033499993995,None,22,2,90,2,,,,,219.09386040000027,,219.0834867680005,219.09386040000027,220.07875087700086,220.07875087700086,220.07875087700086,220.07875087700086,220.08602553799938,221.0954335610004,221.0954335610004,221.39747766300025,c,1,0.2897033499993995,None,,,,,085369,001,2024-10-14_17h59.26.468,MotorSequenceLearning,2024.2.1,81.93251805026416,2024-10-14 17h59.39.582131 +0530,
-150,z,91,3,22,z,1,2.2988888929994573,None,22,3,91,3,,,,,221.41007585199986,,221.39794202700068,221.41007585199986,222.3955161060003,222.3955161060003,222.3955161060003,222.3955161060003,222.402690076,223.3958916820011,223.3958916820011,225.69942349399935,z,1,2.2988888929994573,None,,,,,085369,001,2024-10-14_17h59.26.468,MotorSequenceLearning,2024.2.1,81.93251805026416,2024-10-14 17h59.39.582131 +0530,
-50,x,92,0,23,x,1,0.4320954670001811,None,23,0,92,0,,,,,225.71098683899982,,225.69992674100104,225.71098683899982,226.69533949200013,226.69533949200013,226.69533949200013,226.69533949200013,226.70276439100053,227.69581262000065,227.69581262000065,228.13161882900022,x,1,0.4320954670001811,None,,,,,085369,001,2024-10-14_17h59.26.468,MotorSequenceLearning,2024.2.1,81.93251805026416,2024-10-14 17h59.39.582131 +0530,
150,v,93,1,23,v,1,0.3473574599993299,None,23,1,93,1,,,,,228.1451590910001,,228.13227574300072,228.1451590910001,229.12916691800092,229.12916691800092,229.12916691800092,229.12916691800092,229.13625470700026,230.130853269,230.130853269,230.4979592540003,v,1,0.3473574599993299,None,,,,,085369,001,2024-10-14_17h59.26.468,MotorSequenceLearning,2024.2.1,81.93251805026416,2024-10-14 17h59.39.582131 +0530,
50,c,94,2,23,c,1,0.4303107989999262,None,23,2,94,2,,,,,230.5114392230007,,230.498531139001,230.5114392230007,231.49510222800018,231.49510222800018,231.49510222800018,231.49510222800018,231.50217316499948,232.51302674900035,232.51302674900035,232.9519655160002,c,1,0.4303107989999262,None,,,,,085369,001,2024-10-14_17h59.26.468,MotorSequenceLearning,2024.2.1,81.93251805026416,2024-10-14 17h59.39.582131 +0530,
-150,z,95,3,23,z,1,0.2894304559995362,None,23,3,95,3,,,,,232.96433312500085,,232.95245750600043,232.96433312500085,233.95133099399936,233.95133099399936,233.95133099399936,233.95133099399936,233.96136821300024,234.9492823090004,234.9492823090004,235.24996636800097,z,1,0.2894304559995362,None,,,,,085369,001,2024-10-14_17h59.26.468,MotorSequenceLearning,2024.2.1,81.93251805026416,2024-10-14 17h59.39.582131 +0530,
-50,x,96,0,24,x,1,0.4995183629998792,None,24,0,96,0,,,,,235.26282032600102,,235.25043883000035,235.26282032600102,236.26131876399995,236.26131876399995,236.26131876399995,236.26131876399995,236.27910653300023,237.26121771500038,237.26121771500038,237.76876984500086,x,1,0.4995183629998792,None,,,,,085369,001,2024-10-14_17h59.26.468,MotorSequenceLearning,2024.2.1,81.93251805026416,2024-10-14 17h59.39.582131 +0530,
150,v,97,1,24,v,1,0.311112958999729,None,24,1,97,1,,,,,237.78257839100115,,237.76926957700016,237.78257839100115,238.76181800800077,238.76181800800077,238.76181800800077,238.76181800800077,238.77891725300105,239.77806995399987,239.77806995399987,240.10047238300103,v,1,0.311112958999729,None,,,,,085369,001,2024-10-14_17h59.26.468,MotorSequenceLearning,2024.2.1,81.93251805026416,2024-10-14 17h59.39.582131 +0530,
50,c,98,2,24,c,1,0.6033700909993058,None,24,2,98,2,,,,,240.11256186699939,,240.1009509760006,240.11256186699939,241.09562747600103,241.09562747600103,241.09562747600103,241.09562747600103,241.10319783700106,242.0963640099999,242.0963640099999,242.71475516899955,c,1,0.6033700909993058,None,,,,,085369,001,2024-10-14_17h59.26.468,MotorSequenceLearning,2024.2.1,81.93251805026416,2024-10-14 17h59.39.582131 +0530,
-150,z,99,3,24,z,1,0.29641781999998784,None,24,3,99,3,,,,,242.72651439699985,,242.71523983800034,242.72651439699985,243.71174090500062,243.71174090500062,243.71174090500062,243.71174090500062,243.71888942700025,244.7130881280009,244.7130881280009,245.01737291100108,z,1,0.29641781999998784,None,,,,,085369,001,2024-10-14_17h59.26.468,MotorSequenceLearning,2024.2.1,81.93251805026416,2024-10-14 17h59.39.582131 +0530,
-50,x,100,0,25,x,1,0.4902246399997239,None,25,0,100,0,,,,,245.02771616100108,,245.01779959300075,245.02771616100108,246.01238242600084,246.01238242600084,246.01238242600084,246.01238242600084,246.02031452899973,247.01487323400033,247.01487323400033,247.51414059200033,x,1,0.4902246399997239,None,,,,,085369,001,2024-10-14_17h59.26.468,MotorSequenceLearning,2024.2.1,81.93251805026416,2024-10-14 17h59.39.582131 +0530,
150,v,101,1,25,v,1,0.33129124399965804,None,25,1,101,1,,,,,247.52580730299997,,247.51462191500104,247.52580730299997,248.51181508199988,248.51181508199988,248.51181508199988,248.51181508199988,248.51903838900034,249.51269720399978,249.51269720399978,249.84977272000106,v,1,0.33129124399965804,None,,,,,085369,001,2024-10-14_17h59.26.468,MotorSequenceLearning,2024.2.1,81.93251805026416,2024-10-14 17h59.39.582131 +0530,
50,c,102,2,25,c,1,0.28073703100017156,None,25,2,102,2,,,,,249.86074179699972,,249.85029435599972,249.86074179699972,250.84468348300106,250.84468348300106,250.84468348300106,250.84468348300106,250.85152307300086,251.862690760001,251.862690760001,252.14836305900099,c,1,0.28073703100017156,None,,,,,085369,001,2024-10-14_17h59.26.468,MotorSequenceLearning,2024.2.1,81.93251805026416,2024-10-14 17h59.39.582131 +0530,
-150,z,103,3,25,z,1,0.21661319200029538,None,25,3,103,3,,,,,252.15982148900002,,252.14894950300004,252.15982148900002,253.1615223580011,253.1615223580011,253.1615223580011,253.1615223580011,253.17913872999998,254.14593789399987,254.14593789399987,254.37816446100078,z,1,0.21661319200029538,None,,,,,085369,001,2024-10-14_17h59.26.468,MotorSequenceLearning,2024.2.1,81.93251805026416,2024-10-14 17h59.39.582131 +0530,
-50,x,104,0,26,x,1,0.2869336570001906,None,26,0,104,0,,,,,254.38461583000026,,254.3785891410007,254.38461583000026,255.36883014600062,255.36883014600062,255.36883014600062,255.36883014600062,255.37769368599947,256.3722696010009,256.3722696010009,256.6698802669998,x,1,0.2869336570001906,None,,,,,085369,001,2024-10-14_17h59.26.468,MotorSequenceLearning,2024.2.1,81.93251805026416,2024-10-14 17h59.39.582131 +0530,
150,v,105,1,26,v,1,0.27033464400119556,None,26,1,105,1,,,,,256.6817962519999,,256.67036804800046,256.6817962519999,257.66470353300065,257.66470353300065,257.66470353300065,257.66470353300065,257.6783520730005,258.67814251300115,258.67814251300115,258.9595372010008,v,1,0.27033464400119556,None,,,,,085369,001,2024-10-14_17h59.26.468,MotorSequenceLearning,2024.2.1,81.93251805026416,2024-10-14 17h59.39.582131 +0530,
50,c,106,2,26,c,1,0.3087266139991698,None,26,2,106,2,,,,,258.97075115699954,,258.9601516540006,258.97075115699954,259.9534496209999,259.9534496209999,259.9534496209999,259.9534496209999,259.96362951599986,260.9628509039994,260.9628509039994,261.28049241400004,c,1,0.3087266139991698,None,,,,,085369,001,2024-10-14_17h59.26.468,MotorSequenceLearning,2024.2.1,81.93251805026416,2024-10-14 17h59.39.582131 +0530,
-150,z,107,3,26,z,1,0.2565256620000582,None,26,3,107,3,,,,,261.29352670499975,,261.28096829199967,261.29352670499975,262.27857511,262.27857511,262.27857511,262.27857511,262.28579301100035,263.2943655319996,263.2943655319996,263.56376740999985,z,1,0.2565256620000582,None,,,,,085369,001,2024-10-14_17h59.26.468,MotorSequenceLearning,2024.2.1,81.93251805026416,2024-10-14 17h59.39.582131 +0530,
-50,x,108,0,27,x,1,0.29113292200054275,None,27,0,108,0,,,,,263.5757789870004,,263.5642453370001,263.5757789870004,264.56204727600016,264.56204727600016,264.56204727600016,264.56204727600016,264.56962089599983,265.56117197300046,265.56117197300046,265.85713325399956,x,1,0.29113292200054275,None,,,,,085369,001,2024-10-14_17h59.26.468,MotorSequenceLearning,2024.2.1,81.93251805026416,2024-10-14 17h59.39.582131 +0530,
150,v,109,1,27,v,1,0.25789755299956596,None,27,1,109,1,,,,,265.86822626399953,,265.8576309479995,265.86822626399953,266.8518086040003,266.8518086040003,266.8518086040003,266.8518086040003,266.86135560799994,267.86150854399966,267.86150854399966,268.12285593399974,v,1,0.25789755299956596,None,,,,,085369,001,2024-10-14_17h59.26.468,MotorSequenceLearning,2024.2.1,81.93251805026416,2024-10-14 17h59.39.582131 +0530,
50,c,110,2,27,c,1,0.33555522200003907,None,27,2,110,2,,,,,268.13403241800006,,268.12368912000056,268.13403241800006,269.1185670529994,269.1185670529994,269.1185670529994,269.1185670529994,269.12819667700023,270.1278462290011,270.1278462290011,270.46639684299953,c,1,0.33555522200003907,None,,,,,085369,001,2024-10-14_17h59.26.468,MotorSequenceLearning,2024.2.1,81.93251805026416,2024-10-14 17h59.39.582131 +0530,
-150,z,111,3,27,z,1,0.2989270870002656,None,27,3,111,3,,,,,270.4783323850006,,270.466906859001,270.4783323850006,271.4610255309999,271.4610255309999,271.4610255309999,271.4610255309999,271.46810388999984,272.4633981700008,272.4633981700008,272.76511000199935,z,1,0.2989270870002656,None,,,,,085369,001,2024-10-14_17h59.26.468,MotorSequenceLearning,2024.2.1,81.93251805026416,2024-10-14 17h59.39.582131 +0530,
-50,x,112,0,28,x,1,0.30508224200093537,None,28,0,112,0,,,,,272.777129823,,272.76572001600107,272.777129823,273.7616460019999,273.7616460019999,273.7616460019999,273.7616460019999,273.76897696500055,274.7637523760004,274.7637523760004,275.0797896559998,x,1,0.30508224200093537,None,,,,,085369,001,2024-10-14_17h59.26.468,MotorSequenceLearning,2024.2.1,81.93251805026416,2024-10-14 17h59.39.582131 +0530,
150,v,113,1,28,v,1,0.31526897399999143,None,28,1,113,1,,,,,275.0923089730004,,275.08026839500053,275.0923089730004,276.0777081739998,276.0777081739998,276.0777081739998,276.0777081739998,276.0849301540002,277.0782840240008,277.0782840240008,277.41383262599993,v,1,0.31526897399999143,None,,,,,085369,001,2024-10-14_17h59.26.468,MotorSequenceLearning,2024.2.1,81.93251805026416,2024-10-14 17h59.39.582131 +0530,
50,c,114,2,28,c,1,0.35705502499877184,None,28,2,114,2,,,,,277.4275800280011,,277.41446316099973,277.4275800280011,278.4271442299996,278.4271442299996,278.4271442299996,278.4271442299996,278.4451920930005,279.4231108740005,279.4231108740005,279.7983884540008,c,1,0.35705502499877184,None,,,,,085369,001,2024-10-14_17h59.26.468,MotorSequenceLearning,2024.2.1,81.93251805026416,2024-10-14 17h59.39.582131 +0530,
-150,z,115,3,28,z,1,0.369447589999254,None,28,3,115,3,,,,,279.809722987,,279.7989839109996,279.809722987,280.8035237590011,280.8035237590011,280.8035237590011,280.8035237590011,280.8035237590011,281.7948176869995,281.7948176869995,282.1735204360011,z,1,0.369447589999254,None,,,,,085369,001,2024-10-14_17h59.26.468,MotorSequenceLearning,2024.2.1,81.93251805026416,2024-10-14 17h59.39.582131 +0530,
-50,x,116,0,29,x,1,0.3548020149992226,None,29,0,116,0,,,,,282.1845925580001,,282.17413758899966,282.1845925580001,283.1692421080006,283.1692421080006,283.1692421080006,283.1692421080006,283.1787959400008,284.17238688399993,284.17238688399993,284.53138342000057,x,1,0.3548020149992226,None,,,,,085369,001,2024-10-14_17h59.26.468,MotorSequenceLearning,2024.2.1,81.93251805026416,2024-10-14 17h59.39.582131 +0530,
150,v,117,1,29,v,1,0.324165982001432,None,29,1,117,1,,,,,284.54360742800054,,284.53190857400114,284.54360742800054,285.5279834590001,285.5279834590001,285.5279834590001,285.5279834590001,285.5356145090009,286.5443472200004,286.5443472200004,286.8760879269994,v,1,0.324165982001432,None,,,,,085369,001,2024-10-14_17h59.26.468,MotorSequenceLearning,2024.2.1,81.93251805026416,2024-10-14 17h59.39.582131 +0530,
50,c,118,2,29,c,1,0.2779876630011131,None,29,2,118,2,,,,,286.88638570700095,,286.87657200000103,286.88638570700095,287.86858981099977,287.86858981099977,287.86858981099977,287.86858981099977,287.88542697999947,288.86872792100075,288.86872792100075,289.1648601720008,c,1,0.2779876630011131,None,,,,,085369,001,2024-10-14_17h59.26.468,MotorSequenceLearning,2024.2.1,81.93251805026416,2024-10-14 17h59.39.582131 +0530,
-150,z,119,3,29,z,1,0.25714198800051236,None,29,3,119,3,,,,,289.17841440899974,,289.1654451310005,289.17841440899974,290.16298242999983,290.16298242999983,290.16298242999983,290.16298242999983,290.17086245599967,291.1700475680009,291.1700475680009,291.4309805419998,z,1,0.25714198800051236,None,,,,,085369,001,2024-10-14_17h59.26.468,MotorSequenceLearning,2024.2.1,81.93251805026416,2024-10-14 17h59.39.582131 +0530,
-50,x,120,0,30,x,1,0.29862625199893955,None,30,0,120,0,,,,,291.44201287299984,,291.4315291540006,291.44201287299984,292.4286468579994,292.4286468579994,292.4286468579994,292.4286468579994,292.43608944900006,293.42781705299967,293.42781705299967,293.73074201300005,x,1,0.29862625199893955,None,,,,,085369,001,2024-10-14_17h59.26.468,MotorSequenceLearning,2024.2.1,81.93251805026416,2024-10-14 17h59.39.582131 +0530,
150,v,121,1,30,v,1,0.29859636499895714,None,30,1,121,1,,,,,293.7416118380006,,293.73123773000043,293.7416118380006,294.72728396800085,294.72728396800085,294.72728396800085,294.72728396800085,294.7344856889995,295.744617372,295.744617372,296.04827936900074,v,1,0.29859636499895714,None,,,,,085369,001,2024-10-14_17h59.26.468,MotorSequenceLearning,2024.2.1,81.93251805026416,2024-10-14 17h59.39.582131 +0530,
50,c,122,2,30,c,1,0.36431778599944664,None,30,2,122,2,,,,,296.05962904400076,,296.0487623120007,296.05962904400076,297.04401018499993,297.04401018499993,297.04401018499993,297.04401018499993,297.05098464299954,298.0448042780008,298.0448042780008,298.41588362699986,c,1,0.36431778599944664,None,,,,,085369,001,2024-10-14_17h59.26.468,MotorSequenceLearning,2024.2.1,81.93251805026416,2024-10-14 17h59.39.582131 +0530,
-150,z,123,3,30,z,1,0.2642610059992876,None,30,3,123,3,,,,,298.42870321699957,,298.416353523,298.42870321699957,299.4110680419999,299.4110680419999,299.4110680419999,299.4110680419999,299.4183400820002,300.4274798250008,300.4274798250008,300.6986351320011,z,1,0.2642610059992876,None,,,,,085369,001,2024-10-14_17h59.26.468,MotorSequenceLearning,2024.2.1,81.93251805026416,2024-10-14 17h59.39.582131 +0530,
-50,x,124,0,31,x,1,0.4766854070003319,None,31,0,124,0,,,,,300.71031934200073,,300.69911722100005,300.71031934200073,301.6944731420008,301.6944731420008,301.6944731420008,301.6944731420008,301.70159119300115,302.7026963869994,302.7026963869994,303.1901924850008,x,1,0.4766854070003319,None,,,,,085369,001,2024-10-14_17h59.26.468,MotorSequenceLearning,2024.2.1,81.93251805026416,2024-10-14 17h59.39.582131 +0530,
150,v,125,1,31,v,1,0.460937877998731,None,31,1,125,1,,,,,303.20196832500005,,303.1908261459994,303.20196832500005,304.185102114001,304.185102114001,304.185102114001,304.185102114001,304.19485580999935,305.18505637700036,305.18505637700036,305.6494016790002,v,1,0.460937877998731,None,,,,,085369,001,2024-10-14_17h59.26.468,MotorSequenceLearning,2024.2.1,81.93251805026416,2024-10-14 17h59.39.582131 +0530,
50,c,126,2,31,z,0,0.735112468000807,None,31,2,126,2,,,,,305.6771075500001,,305.650114217,305.6771075500001,306.64427996999984,306.64427996999984,306.64427996999984,306.64427996999984,306.66788589799944,307.6467787700003,307.6467787700003,308.3964951809994,z,0,0.735112468000807,None,,,,,085369,001,2024-10-14_17h59.26.468,MotorSequenceLearning,2024.2.1,81.93251805026416,2024-10-14 17h59.39.582131 +0530,
-150,z,127,3,31,z,1,0.508331895000083,None,31,3,127,3,,,,,308.4073871740002,,308.3969843440009,308.4073871740002,309.4107147200011,309.4107147200011,309.4107147200011,309.4107147200011,309.42851806,310.3968470230011,310.3968470230011,310.9123641469996,z,1,0.508331895000083,None,,,,,085369,001,2024-10-14_17h59.26.468,MotorSequenceLearning,2024.2.1,81.93251805026416,2024-10-14 17h59.39.582131 +0530,
-50,x,128,0,32,x,1,0.694797729000129,None,32,0,128,0,,,,,310.928459834,,310.91283776400087,310.928459834,311.91171941299945,311.91171941299945,311.91171941299945,311.91171941299945,311.9194805160005,312.91355075200045,312.91355075200045,313.61789093300104,x,1,0.694797729000129,None,,,,,085369,001,2024-10-14_17h59.26.468,MotorSequenceLearning,2024.2.1,81.93251805026416,2024-10-14 17h59.39.582131 +0530,
150,v,129,1,32,v,1,0.347824569000295,None,32,1,129,1,,,,,313.6311919130003,,313.6183723810009,313.6311919130003,314.6273240270002,314.6273240270002,314.6273240270002,314.6273240270002,314.6451312820009,315.611256178001,315.611256178001,315.966479308001,v,1,0.347824569000295,None,,,,,085369,001,2024-10-14_17h59.26.468,MotorSequenceLearning,2024.2.1,81.93251805026416,2024-10-14 17h59.39.582131 +0530,
50,c,130,2,32,c,1,0.2918369689996325,None,32,2,130,2,,,,,315.99354435500027,,315.9669554480006,315.99354435500027,316.97939464999945,316.97939464999945,316.97939464999945,316.97939464999945,316.996160779001,317.9634490469998,317.9634490469998,318.264232294001,c,1,0.2918369689996325,None,,,,,085369,001,2024-10-14_17h59.26.468,MotorSequenceLearning,2024.2.1,81.93251805026416,2024-10-14 17h59.39.582131 +0530,
-150,z,131,3,32,z,1,0.36431773099866405,None,32,3,131,3,,,,,318.2765903439995,,318.2647136830001,318.2765903439995,319.26122891900013,319.26122891900013,319.26122891900013,319.26122891900013,319.26888889899965,320.26303941100014,320.26303941100014,320.64763675500035,z,1,0.36431773099866405,None,,,,,085369,001,2024-10-14_17h59.26.468,MotorSequenceLearning,2024.2.1,81.93251805026416,2024-10-14 17h59.39.582131 +0530,
-50,x,132,0,33,x,1,0.349644995001654,None,33,0,132,0,,,,,320.6768818260007,,320.64849735999996,320.6768818260007,321.64399185799994,321.64399185799994,321.64399185799994,321.64399185799994,321.6685547550005,322.6454724230007,322.6454724230007,322.99908797100034,x,1,0.349644995001654,None,,,,,085369,001,2024-10-14_17h59.26.468,MotorSequenceLearning,2024.2.1,81.93251805026416,2024-10-14 17h59.39.582131 +0530,
150,v,133,1,33,v,1,0.2564542990003247,None,33,1,133,1,,,,,323.01102687599996,,322.99959879500057,323.01102687599996,323.9943148229995,323.9943148229995,323.9943148229995,323.9943148229995,324.0016455700006,324.99525144200015,324.99525144200015,325.264370117,v,1,0.2564542990003247,None,,,,,085369,001,2024-10-14_17h59.26.468,MotorSequenceLearning,2024.2.1,81.93251805026416,2024-10-14 17h59.39.582131 +0530,
50,c,134,2,33,c,1,0.2641344229996321,None,33,2,134,2,,,,,325.29307500600044,,325.2647092040006,325.29307500600044,326.26276542599953,326.26276542599953,326.26276542599953,326.26276542599953,326.2848733280007,327.26121023000087,327.26121023000087,327.5317547979994,c,1,0.2641344229996321,None,,,,,085369,001,2024-10-14_17h59.26.468,MotorSequenceLearning,2024.2.1,81.93251805026416,2024-10-14 17h59.39.582131 +0530,
-150,z,135,3,33,z,1,0.2659571669992147,None,33,3,135,3,,,,,327.54201771500084,,327.5322376990007,327.54201771500084,328.5269528299996,328.5269528299996,328.5269528299996,328.5269528299996,328.534145267,329.5356204260006,329.5356204260006,329.80541401499977,z,1,0.2659571669992147,None,,,,,085369,001,2024-10-14_17h59.26.468,MotorSequenceLearning,2024.2.1,81.93251805026416,2024-10-14 17h59.39.582131 +0530,
-50,x,136,0,34,x,1,0.28327561400146806,None,34,0,136,0,,,,,329.81699192400083,,329.8061264810003,329.81699192400083,330.80116014800114,330.80116014800114,330.80116014800114,330.80116014800114,330.8111548659999,331.80279795000024,331.80279795000024,332.0960406510003,x,1,0.28327561400146806,None,,,,,085369,001,2024-10-14_17h59.26.468,MotorSequenceLearning,2024.2.1,81.93251805026416,2024-10-14 17h59.39.582131 +0530,
150,v,137,1,34,v,1,0.2344684130002861,None,34,1,137,1,,,,,332.10690261499985,,332.0965122489997,332.10690261499985,333.09599821400116,333.09599821400116,333.09599821400116,333.09599821400116,333.1115459339999,334.0950021139997,334.0950021139997,334.3367274310003,v,1,0.2344684130002861,None,,,,,085369,001,2024-10-14_17h59.26.468,MotorSequenceLearning,2024.2.1,81.93251805026416,2024-10-14 17h59.39.582131 +0530,
50,c,138,2,34,c,1,0.2953946340003313,None,34,2,138,2,,,,,334.34692097900006,,334.33716120899953,334.34692097900006,335.3352814959999,335.3352814959999,335.3352814959999,335.3352814959999,335.344507961001,336.32955834600034,336.32955834600034,336.6319211350001,c,1,0.2953946340003313,None,,,,,085369,001,2024-10-14_17h59.26.468,MotorSequenceLearning,2024.2.1,81.93251805026416,2024-10-14 17h59.39.582131 +0530,
-150,z,139,3,34,z,1,0.26920259399958013,None,34,3,139,3,,,,,336.6428530360008,,336.6323979230001,336.6428530360008,337.6268911219995,337.6268911219995,337.6268911219995,337.6268911219995,337.63326968600086,338.63149866300046,338.63149866300046,338.91213628900005,z,1,0.26920259399958013,None,,,,,085369,001,2024-10-14_17h59.26.468,MotorSequenceLearning,2024.2.1,81.93251805026416,2024-10-14 17h59.39.582131 +0530,
-50,x,140,0,35,x,1,0.23549185299998499,None,35,0,140,0,,,,,338.92441042000064,,338.91254360399944,338.92441042000064,339.9109419569995,339.9109419569995,339.9109419569995,339.9109419569995,339.91849125800036,340.9272875930001,340.9272875930001,341.16674464100106,x,1,0.23549185299998499,None,,,,,085369,001,2024-10-14_17h59.26.468,MotorSequenceLearning,2024.2.1,81.93251805026416,2024-10-14 17h59.39.582131 +0530,
150,v,141,1,35,v,1,0.24696059400048398,None,35,1,141,1,,,,,341.18051416399976,,341.1673331359998,341.18051416399976,342.16010903200004,342.16010903200004,342.16010903200004,342.16010903200004,342.17702139299945,343.16089930400085,343.16089930400085,343.41309948600065,v,1,0.24696059400048398,None,,,,,085369,001,2024-10-14_17h59.26.468,MotorSequenceLearning,2024.2.1,81.93251805026416,2024-10-14 17h59.39.582131 +0530,
50,c,142,2,35,c,1,0.23949483499927737,None,35,2,142,2,,,,,343.42464069500056,,343.41352247100076,343.42464069500056,344.4102194900006,344.4102194900006,344.4102194900006,344.4102194900006,344.41727206500036,345.41064224,345.41064224,345.6541612860001,c,1,0.23949483499927737,None,,,,,085369,001,2024-10-14_17h59.26.468,MotorSequenceLearning,2024.2.1,81.93251805026416,2024-10-14 17h59.39.582131 +0530,
-150,z,143,3,35,z,1,0.21025056300095457,None,35,3,143,3,,,,,345.6659400509998,,345.6546175650001,345.6659400509998,346.6617323440005,346.6617323440005,346.6617323440005,346.6617323440005,346.66926088999935,347.6522793000004,347.6522793000004,347.8714624690001,z,1,0.21025056300095457,None,,,,,085369,001,2024-10-14_17h59.26.468,MotorSequenceLearning,2024.2.1,81.93251805026416,2024-10-14 17h59.39.582131 +0530,
-50,x,144,0,36,x,1,0.3196250250002777,None,36,0,144,0,,,,,347.8831709340011,,347.8721051930006,347.8831709340011,348.86805198,348.86805198,348.86805198,348.86805198,348.8773934439996,349.87722607700016,349.87722607700016,350.2133746039999,x,1,0.3196250250002777,None,,,,,085369,001,2024-10-14_17h59.26.468,MotorSequenceLearning,2024.2.1,81.93251805026416,2024-10-14 17h59.39.582131 +0530,
150,v,145,1,36,v,1,0.31096303300000727,None,36,1,145,1,,,,,350.2264109299995,,350.21396593400095,350.2264109299995,351.21011530599935,351.21011530599935,351.21011530599935,351.21011530599935,351.21689566700115,352.2267829900011,352.2267829900011,352.54642522299946,v,1,0.31096303300000727,None,,,,,085369,001,2024-10-14_17h59.26.468,MotorSequenceLearning,2024.2.1,81.93251805026416,2024-10-14 17h59.39.582131 +0530,
50,c,146,2,36,c,1,0.25621040500118397,None,36,2,146,2,,,,,352.5571222590006,,352.5469241610008,352.5571222590006,353.54364529600025,353.54364529600025,353.54364529600025,353.54364529600025,353.56183281300036,354.551897845,354.551897845,354.81278464299976,c,1,0.25621040500118397,None,,,,,085369,001,2024-10-14_17h59.26.468,MotorSequenceLearning,2024.2.1,81.93251805026416,2024-10-14 17h59.39.582131 +0530,
-150,z,147,3,36,z,1,0.24452056699919922,None,36,3,147,3,,,,,354.8273787300004,,354.81326757399984,354.8273787300004,355.81123803800074,355.81123803800074,355.81123803800074,355.81123803800074,355.8178700570006,356.81078481999975,356.81078481999975,357.0633190139997,z,1,0.24452056699919922,None,,,,,085369,001,2024-10-14_17h59.26.468,MotorSequenceLearning,2024.2.1,81.93251805026416,2024-10-14 17h59.39.582131 +0530,
-50,x,148,0,37,x,1,0.3884617750009056,None,37,0,148,0,,,,,357.07653415800087,,357.0638081090001,357.07653415800087,358.05937495500075,358.05937495500075,358.05937495500075,358.05937495500075,358.06713635599954,359.0601585509994,359.0601585509994,359.45589730400025,x,1,0.3884617750009056,None,,,,,085369,001,2024-10-14_17h59.26.468,MotorSequenceLearning,2024.2.1,81.93251805026416,2024-10-14 17h59.39.582131 +0530,
150,v,149,1,37,v,1,0.3021822729988344,None,37,1,149,1,,,,,359.4667428539997,,359.45638509700075,359.4667428539997,360.4503401540005,360.4503401540005,360.4503401540005,360.4503401540005,360.46001405400057,361.4504555809999,361.4504555809999,361.76165180099997,v,1,0.3021822729988344,None,,,,,085369,001,2024-10-14_17h59.26.468,MotorSequenceLearning,2024.2.1,81.93251805026416,2024-10-14 17h59.39.582131 +0530,
50,c,150,2,37,c,1,0.24226479699973424,None,37,2,150,2,,,,,361.77274386799945,,361.7620141050011,361.77274386799945,362.7600944469996,362.7600944469996,362.7600944469996,362.7600944469996,362.76716332199976,363.7520772950011,363.7520772950011,363.99765571699936,c,1,0.24226479699973424,None,,,,,085369,001,2024-10-14_17h59.26.468,MotorSequenceLearning,2024.2.1,81.93251805026416,2024-10-14 17h59.39.582131 +0530,
-150,z,151,3,37,z,1,0.26113223300126265,None,37,3,151,3,,,,,364.0095696890003,,363.9982217800007,364.0095696890003,364.99457241799973,364.99457241799973,364.99457241799973,364.99457241799973,365.0013523540001,365.99291683999945,365.99291683999945,366.28096171200013,z,1,0.26113223300126265,None,,,,,085369,001,2024-10-14_17h59.26.468,MotorSequenceLearning,2024.2.1,81.93251805026416,2024-10-14 17h59.39.582131 +0530,
-50,x,152,0,38,x,1,0.3870175289994222,None,38,0,152,0,,,,,366.3099413550008,,366.2818154249999,366.3099413550008,367.2763952660007,367.2763952660007,367.2763952660007,367.2763952660007,367.300090570001,368.27823646400066,368.27823646400066,368.6788326469996,x,1,0.3870175289994222,None,,,,,085369,001,2024-10-14_17h59.26.468,MotorSequenceLearning,2024.2.1,81.93251805026416,2024-10-14 17h59.39.582131 +0530,
150,v,153,1,38,v,1,0.2666315169990412,None,38,1,153,1,,,,,368.692280958001,,368.67941970299944,368.692280958001,369.6771031389999,369.6771031389999,369.6771031389999,369.6771031389999,369.68437930500113,370.6761510939996,370.6761510939996,370.94882647300074,v,1,0.2666315169990412,None,,,,,085369,001,2024-10-14_17h59.26.468,MotorSequenceLearning,2024.2.1,81.93251805026416,2024-10-14 17h59.39.582131 +0530,
50,c,154,2,38,c,1,0.30349309499979427,None,38,2,154,2,,,,,370.976050665,,370.9493343190006,370.976050665,371.9443866390011,371.9443866390011,371.9443866390011,371.9443866390011,371.9939286980007,372.9597757600004,372.9597757600004,373.2666244329994,c,1,0.30349309499979427,None,,,,,085369,001,2024-10-14_17h59.26.468,MotorSequenceLearning,2024.2.1,81.93251805026416,2024-10-14 17h59.39.582131 +0530,
-150,z,155,3,38,z,1,0.33953022599962424,None,38,3,155,3,,,,,373.2790549220008,,373.26713630499944,373.2790549220008,374.2600979350009,374.2600979350009,374.2600979350009,374.2600979350009,374.2780178129997,375.26036127599946,375.26036127599946,375.6078533130003,z,1,0.33953022599962424,None,,,,,085369,001,2024-10-14_17h59.26.468,MotorSequenceLearning,2024.2.1,81.93251805026416,2024-10-14 17h59.39.582131 +0530,
-50,x,156,0,39,x,1,0.3984561039997061,None,39,0,156,0,,,,,375.6179928500005,,375.60833995600115,375.6179928500005,376.61200039100004,376.61200039100004,376.61200039100004,376.61200039100004,376.62651413599997,377.62661017699975,377.62661017699975,378.0304691040001,x,1,0.3984561039997061,None,,,,,085369,001,2024-10-14_17h59.26.468,MotorSequenceLearning,2024.2.1,81.93251805026416,2024-10-14 17h59.39.582131 +0530,
150,v,157,1,39,v,1,0.34699914700104273,None,39,1,157,1,,,,,378.0415465900005,,378.0309567610002,378.0415465900005,379.02626789399983,379.02626789399983,379.02626789399983,379.02626789399983,379.0327059560004,380.0271253560004,380.0271253560004,380.3965568229996,v,1,0.34699914700104273,None,,,,,085369,001,2024-10-14_17h59.26.468,MotorSequenceLearning,2024.2.1,81.93251805026416,2024-10-14 17h59.39.582131 +0530,
50,c,158,2,39,c,1,0.23112194500026817,None,39,2,158,2,,,,,380.408753953001,,380.3971395749995,380.408753953001,381.3934809599996,381.3934809599996,381.3934809599996,381.3934809599996,381.4011679510004,382.4097871640006,382.4097871640006,382.6488336370003,c,1,0.23112194500026817,None,,,,,085369,001,2024-10-14_17h59.26.468,MotorSequenceLearning,2024.2.1,81.93251805026416,2024-10-14 17h59.39.582131 +0530,
-150,z,159,3,39,z,1,0.265769284000271,None,39,3,159,3,,,,,382.6599775650011,,382.6493120569994,382.6599775650011,383.644009433001,383.644009433001,383.644009433001,383.644009433001,383.6515478580004,384.6606883349996,384.6606883349996,384.946335001001,z,1,0.265769284000271,None,,,,,085369,001,2024-10-14_17h59.26.468,MotorSequenceLearning,2024.2.1,81.93251805026416,2024-10-14 17h59.39.582131 +0530,
-50,x,160,0,40,x,1,0.4309727740001108,None,40,0,160,0,,,,,384.959432828,,384.9469231309995,384.959432828,385.9433697759996,385.9433697759996,385.9433697759996,385.9433697759996,385.95055096500073,386.9435000579997,386.9435000579997,387.3793837060002,x,1,0.4309727740001108,None,,,,,085369,001,2024-10-14_17h59.26.468,MotorSequenceLearning,2024.2.1,81.93251805026416,2024-10-14 17h59.39.582131 +0530,
150,v,161,1,40,v,1,0.3545222409993585,None,40,1,161,1,,,,,387.3905294119995,,387.37988727599986,387.3905294119995,388.37675497300006,388.37675497300006,388.37675497300006,388.37675497300006,388.38402988800044,389.39324719700016,389.39324719700016,389.75469337100003,v,1,0.3545222409993585,None,,,,,085369,001,2024-10-14_17h59.26.468,MotorSequenceLearning,2024.2.1,81.93251805026416,2024-10-14 17h59.39.582131 +0530,
50,c,162,2,40,c,1,0.2870885320007801,None,40,2,162,2,,,,,389.76534102500045,,389.75526488300056,389.76534102500045,390.7504108430003,390.7504108430003,390.7504108430003,390.7504108430003,390.75969867099957,391.75111087200094,391.75111087200094,392.04973433800114,c,1,0.2870885320007801,None,,,,,085369,001,2024-10-14_17h59.26.468,MotorSequenceLearning,2024.2.1,81.93251805026416,2024-10-14 17h59.39.582131 +0530,
-150,z,163,3,40,z,1,0.29223589800130867,None,40,3,163,3,,,,,392.062895731,,392.0502246970009,392.062895731,393.04309905300033,393.04309905300033,393.04309905300033,393.04309905300033,393.0761074630009,394.0441181090009,394.0441181090009,394.347783919,z,1,0.29223589800130867,None,,,,,085369,001,2024-10-14_17h59.26.468,MotorSequenceLearning,2024.2.1,81.93251805026416,2024-10-14 17h59.39.582131 +0530,
-50,x,164,0,41,x,1,0.30188210800042725,None,41,0,164,0,,,,,394.35867342799975,,394.3482538190001,394.35867342799975,395.3437035320003,395.3437035320003,395.3437035320003,395.3437035320003,395.35075901300115,396.35920434699983,396.35920434699983,396.67936361800093,x,1,0.30188210800042725,None,,,,,085369,001,2024-10-14_17h59.26.468,MotorSequenceLearning,2024.2.1,81.93251805026416,2024-10-14 17h59.39.582131 +0530,
150,v,165,1,41,v,1,0.30234167500020703,None,41,1,165,1,,,,,396.69218320599975,,396.67993835200105,396.69218320599975,397.67612823700074,397.67612823700074,397.67612823700074,397.67612823700074,397.68328442500024,398.6927037910009,398.6927037910009,399.00383527600025,v,1,0.30234167500020703,None,,,,,085369,001,2024-10-14_17h59.26.468,MotorSequenceLearning,2024.2.1,81.93251805026416,2024-10-14 17h59.39.582131 +0530,
50,c,166,2,41,c,1,0.3078157830004784,None,41,2,166,2,,,,,399.0139911030001,,399.00424809300057,399.0139911030001,400.00235997600066,400.00235997600066,400.00235997600066,400.00235997600066,400.01213133999954,401.0021935349996,401.0021935349996,401.3292601280009,c,1,0.3078157830004784,None,,,,,085369,001,2024-10-14_17h59.26.468,MotorSequenceLearning,2024.2.1,81.93251805026416,2024-10-14 17h59.39.582131 +0530,
-150,z,167,3,41,z,1,0.29494665499987605,None,41,3,167,3,,,,,401.3355238340009,,401.3297574520002,401.3355238340009,402.344571222,402.344571222,402.344571222,402.344571222,402.344571222,403.3267625869994,403.3267625869994,403.630900012,z,1,0.29494665499987605,None,,,,,085369,001,2024-10-14_17h59.26.468,MotorSequenceLearning,2024.2.1,81.93251805026416,2024-10-14 17h59.39.582131 +0530,
-50,x,168,0,42,x,1,0.41168511400064745,None,42,0,168,0,,,,,403.6425075290008,,403.6313921300007,403.6425075290008,404.6261877529996,404.6261877529996,404.6261877529996,404.6261877529996,404.63327025000035,405.6266216690001,405.6266216690001,406.0453895419996,x,1,0.41168511400064745,None,,,,,085369,001,2024-10-14_17h59.26.468,MotorSequenceLearning,2024.2.1,81.93251805026416,2024-10-14 17h59.39.582131 +0530,
150,v,169,1,42,v,1,0.3959386270016694,None,42,1,169,1,,,,,406.0571537329997,,406.04589822900016,406.0571537329997,407.04308599700016,407.04308599700016,407.04308599700016,407.04308599700016,407.0505257830009,408.04537171599986,408.04537171599986,408.445983687001,v,1,0.3959386270016694,None,,,,,085369,001,2024-10-14_17h59.26.468,MotorSequenceLearning,2024.2.1,81.93251805026416,2024-10-14 17h59.39.582131 +0530,
50,c,170,2,42,c,1,0.3579606990006141,None,42,2,170,2,,,,,408.4577007530006,,408.44658814000104,408.4577007530006,409.44326811300016,409.44326811300016,409.44326811300016,409.44326811300016,409.4505614030004,410.45118939299937,410.45118939299937,410.81556923100106,c,1,0.3579606990006141,None,,,,,085369,001,2024-10-14_17h59.26.468,MotorSequenceLearning,2024.2.1,81.93251805026416,2024-10-14 17h59.39.582131 +0530,
-150,z,171,3,42,z,1,0.2804842759996973,None,42,3,171,3,,,,,410.82952066100006,,410.8160721540007,410.82952066100006,411.81031512499976,411.81031512499976,411.81031512499976,411.81031512499976,411.8290086550005,412.8098797189996,412.8098797189996,413.1115584910003,z,1,0.2804842759996973,None,,,,,085369,001,2024-10-14_17h59.26.468,MotorSequenceLearning,2024.2.1,81.93251805026416,2024-10-14 17h59.39.582131 +0530,
-50,x,172,0,43,x,1,0.4482565620000969,None,43,0,172,0,,,,,413.1245721840005,,413.11229524400005,413.1245721840005,414.1092798080008,414.1092798080008,414.1092798080008,414.1092798080008,414.11656353000035,415.1095656609996,415.1095656609996,415.5624415300008,x,1,0.4482565620000969,None,,,,,085369,001,2024-10-14_17h59.26.468,MotorSequenceLearning,2024.2.1,81.93251805026416,2024-10-14 17h59.39.582131 +0530,
150,v,173,1,43,v,1,0.3101889879999362,None,43,1,173,1,,,,,415.57449381100014,,415.5629251930004,415.57449381100014,416.56753787300113,416.56753787300113,416.56753787300113,416.56753787300113,416.56753787300113,417.57831844300017,417.57831844300017,417.8963689100001,v,1,0.3101889879999362,None,,,,,085369,001,2024-10-14_17h59.26.468,MotorSequenceLearning,2024.2.1,81.93251805026416,2024-10-14 17h59.39.582131 +0530,
50,c,174,2,43,c,1,0.23661401299978024,None,43,2,174,2,,,,,417.90867391199936,,417.89693712900043,417.90867391199936,418.89296507200015,418.89296507200015,418.89296507200015,418.89296507200015,418.900271030001,419.9101443239997,419.9101443239997,420.1572771400006,c,1,0.23661401299978024,None,,,,,085369,001,2024-10-14_17h59.26.468,MotorSequenceLearning,2024.2.1,81.93251805026416,2024-10-14 17h59.39.582131 +0530,
-150,z,175,3,43,z,1,0.24868517499999143,None,43,3,175,3,,,,,420.16812165100055,,420.15775687600035,420.16812165100055,421.1508726000011,421.1508726000011,421.1508726000011,421.1508726000011,421.1613890179997,422.1515531019995,422.1515531019995,422.41106454700093,z,1,0.24868517499999143,None,,,,,085369,001,2024-10-14_17h59.26.468,MotorSequenceLearning,2024.2.1,81.93251805026416,2024-10-14 17h59.39.582131 +0530,
-50,x,176,0,44,x,1,1.3663107000011223,None,44,0,176,0,,,,,422.4257732950009,,422.41164667500016,422.4257732950009,423.40915323099944,423.40915323099944,423.40915323099944,423.40915323099944,423.4166840359994,424.4189805490005,424.4189805490005,425.79547940700104,x,1,1.3663107000011223,None,,,,,085369,001,2024-10-14_17h59.26.468,MotorSequenceLearning,2024.2.1,81.93251805026416,2024-10-14 17h59.39.582131 +0530,
150,v,177,1,44,v,1,0.3824736170008691,None,44,1,177,1,,,,,425.80593608900017,,425.79596512600074,425.80593608900017,426.79396452699984,426.79396452699984,426.79396452699984,426.79396452699984,426.8097837109999,427.7954873180006,427.7954873180006,428.1819359679994,v,1,0.3824736170008691,None,,,,,085369,001,2024-10-14_17h59.26.468,MotorSequenceLearning,2024.2.1,81.93251805026416,2024-10-14 17h59.39.582131 +0530,
50,c,178,2,44,c,1,0.5350468990000081,None,44,2,178,2,,,,,428.1945243070004,,428.1825141669997,428.1945243070004,429.17595570900085,429.17595570900085,429.17595570900085,429.17595570900085,429.19297172500046,430.17858907499976,430.17858907499976,430.7206010360005,c,1,0.5350468990000081,None,,,,,085369,001,2024-10-14_17h59.26.468,MotorSequenceLearning,2024.2.1,81.93251805026416,2024-10-14 17h59.39.582131 +0530,
-150,z,179,3,44,z,1,0.3102630780012987,None,44,3,179,3,,,,,430.73303622300045,,430.72123420500066,430.73303622300045,431.7259970390005,431.7259970390005,431.7259970390005,431.7259970390005,431.7336862450011,432.7168511100008,432.7168511100008,433.03000061199964,z,1,0.3102630780012987,None,,,,,085369,001,2024-10-14_17h59.26.468,MotorSequenceLearning,2024.2.1,81.93251805026416,2024-10-14 17h59.39.582131 +0530,
-50,x,180,0,45,x,1,0.24905107700033113,None,45,0,180,0,,,,,433.041613667001,,433.03055928899994,433.041613667001,434.0261926200001,434.0261926200001,434.0261926200001,434.0261926200001,434.0338848749998,435.026394677001,435.026394677001,435.279373976,x,1,0.24905107700033113,None,,,,,085369,001,2024-10-14_17h59.26.468,MotorSequenceLearning,2024.2.1,81.93251805026416,2024-10-14 17h59.39.582131 +0530,
150,v,181,1,45,v,1,1.3173200380006165,None,45,1,181,1,,,,,435.28967143500086,,435.27985840899964,435.28967143500086,436.27567216900025,436.27567216900025,436.27567216900025,436.27567216900025,436.2830776290011,437.2782201379996,437.2782201379996,438.61063945299975,v,1,1.3173200380006165,None,,,,,085369,001,2024-10-14_17h59.26.468,MotorSequenceLearning,2024.2.1,81.93251805026416,2024-10-14 17h59.39.582131 +0530,
50,c,182,2,45,c,1,0.2479784360002668,None,45,2,182,2,,,,,438.61714485800076,,438.61124087999997,438.61714485800076,439.60987324100097,439.60987324100097,439.60987324100097,439.60987324100097,439.60987324100097,440.610154719001,440.610154719001,440.8625824190003,c,1,0.2479784360002668,None,,,,,085369,001,2024-10-14_17h59.26.468,MotorSequenceLearning,2024.2.1,81.93251805026416,2024-10-14 17h59.39.582131 +0530,
-150,z,183,3,45,z,1,0.22827751499971782,None,45,3,183,3,,,,,440.87473188399963,,440.86306918899936,440.87473188399963,441.85897000300065,441.85897000300065,441.85897000300065,441.85897000300065,441.86618674999954,442.8596160090001,442.8596160090001,443.0953710320009,z,1,0.22827751499971782,None,,,,,085369,001,2024-10-14_17h59.26.468,MotorSequenceLearning,2024.2.1,81.93251805026416,2024-10-14 17h59.39.582131 +0530,
-50,x,184,0,46,x,1,0.29161778799971216,None,46,0,184,0,,,,,443.10739099199964,,443.09584375300074,443.10739099199964,444.09310858699973,444.09310858699973,444.09310858699973,444.09310858699973,444.1006841060007,445.1088218670011,445.1088218670011,445.40573769,x,1,0.29161778799971216,None,,,,,085369,001,2024-10-14_17h59.26.468,MotorSequenceLearning,2024.2.1,81.93251805026416,2024-10-14 17h59.39.582131 +0530,
150,v,185,1,46,v,1,0.42610394499934046,None,46,1,185,1,,,,,445.4166436939995,,445.4065728580008,445.4166436939995,446.39988128799996,446.39988128799996,446.39988128799996,446.39988128799996,446.4255581369998,447.39946669799974,447.39946669799974,447.82865020400095,v,1,0.42610394499934046,None,,,,,085369,001,2024-10-14_17h59.26.468,MotorSequenceLearning,2024.2.1,81.93251805026416,2024-10-14 17h59.39.582131 +0530,
50,c,186,2,46,c,1,0.33454713900027855,None,46,2,186,2,,,,,447.840133867001,,447.82915673800017,447.840133867001,448.83313088700015,448.83313088700015,448.83313088700015,448.83313088700015,448.83313088700015,449.8419073549994,449.8419073549994,450.1797078519994,c,1,0.33454713900027855,None,,,,,085369,001,2024-10-14_17h59.26.468,MotorSequenceLearning,2024.2.1,81.93251805026416,2024-10-14 17h59.39.582131 +0530,
-150,z,187,3,46,z,1,0.3420189009993919,None,46,3,187,3,,,,,450.192349844001,,450.1805409130011,450.192349844001,451.1923531880002,451.1923531880002,451.1923531880002,451.1923531880002,451.1923531880002,452.1934558810008,452.1934558810008,452.56224748100067,z,1,0.3420189009993919,None,,,,,085369,001,2024-10-14_17h59.26.468,MotorSequenceLearning,2024.2.1,81.93251805026416,2024-10-14 17h59.39.582131 +0530,
-50,x,188,0,47,x,1,0.4709031549991778,None,47,0,188,0,,,,,452.5746744820008,,452.56283163900116,452.5746744820008,453.57498395100083,453.57498395100083,453.57498395100083,453.57498395100083,453.59291981000024,454.5610981099999,454.5610981099999,455.03691986299964,x,1,0.4709031549991778,None,,,,,085369,001,2024-10-14_17h59.26.468,MotorSequenceLearning,2024.2.1,81.93251805026416,2024-10-14 17h59.39.582131 +0530,
150,v,189,1,47,v,1,0.35032834199955687,None,47,1,189,1,,,,,455.0474129260001,,455.0374671310001,455.0474129260001,456.03286762300013,456.03286762300013,456.03286762300013,456.03286762300013,456.04309666799963,457.0341902529999,457.0341902529999,457.3946792370007,v,1,0.35032834199955687,None,,,,,085369,001,2024-10-14_17h59.26.468,MotorSequenceLearning,2024.2.1,81.93251805026416,2024-10-14 17h59.39.582131 +0530,
50,c,190,2,47,c,1,0.2948467130008794,None,47,2,190,2,,,,,457.40532406700004,,457.3950185390004,457.40532406700004,458.39221088700106,458.39221088700106,458.39221088700106,458.39221088700106,458.3999174260007,459.4087211160004,459.4087211160004,459.71194514499985,c,1,0.2948467130008794,None,,,,,085369,001,2024-10-14_17h59.26.468,MotorSequenceLearning,2024.2.1,81.93251805026416,2024-10-14 17h59.39.582131 +0530,
-150,z,191,3,47,z,1,0.2638973880002595,None,47,3,191,3,,,,,459.72463841100034,,459.71242266899935,459.72463841100034,460.7097665050005,460.7097665050005,460.7097665050005,460.7097665050005,460.71718179399977,461.7095703289997,461.7095703289997,461.98025454100025,z,1,0.2638973880002595,None,,,,,085369,001,2024-10-14_17h59.26.468,MotorSequenceLearning,2024.2.1,81.93251805026416,2024-10-14 17h59.39.582131 +0530,
-50,x,192,0,48,x,1,0.33949671700065664,None,48,0,192,0,,,,,461.99159106000116,,461.98073162699984,461.99159106000116,462.9756488740004,462.9756488740004,462.9756488740004,462.9756488740004,462.98287831699963,463.97587001800093,463.97587001800093,464.32795291799994,x,1,0.33949671700065664,None,,,,,085369,001,2024-10-14_17h59.26.468,MotorSequenceLearning,2024.2.1,81.93251805026416,2024-10-14 17h59.39.582131 +0530,
150,v,193,1,48,v,1,0.3204972869989433,None,48,1,193,1,,,,,464.3389580260009,,464.3284209980011,464.3389580260009,465.32565618400076,465.32565618400076,465.32565618400076,465.32565618400076,465.3328457860007,466.32549767599994,466.32549767599994,466.6553893279997,v,1,0.3204972869989433,None,,,,,085369,001,2024-10-14_17h59.26.468,MotorSequenceLearning,2024.2.1,81.93251805026416,2024-10-14 17h59.39.582131 +0530,
50,c,194,2,48,c,1,0.26816161799979454,None,48,2,194,2,,,,,466.66659766700104,,466.6560134600004,466.66659766700104,467.65012217000003,467.65012217000003,467.65012217000003,467.65012217000003,467.65966806399956,468.6509939589996,468.6509939589996,468.927489691001,c,1,0.26816161799979454,None,,,,,085369,001,2024-10-14_17h59.26.468,MotorSequenceLearning,2024.2.1,81.93251805026416,2024-10-14 17h59.39.582131 +0530,
-150,z,195,3,48,z,1,0.2795347790015512,None,48,3,195,3,,,,,468.9418496140006,,468.9279636709998,468.9418496140006,469.9254112849994,469.9254112849994,469.9254112849994,469.9254112849994,469.93256708400077,470.92784784000105,470.92784784000105,471.21284027799993,z,1,0.2795347790015512,None,,,,,085369,001,2024-10-14_17h59.26.468,MotorSequenceLearning,2024.2.1,81.93251805026416,2024-10-14 17h59.39.582131 +0530,
-50,x,196,0,49,x,1,0.5923182620008447,None,49,0,196,0,,,,,471.22391409600095,,471.2133828219994,471.22391409600095,472.2088759020007,472.2088759020007,472.2088759020007,472.2088759020007,472.21599505999984,473.21013241999935,473.21013241999935,473.8103474569998,x,1,0.5923182620008447,None,,,,,085369,001,2024-10-14_17h59.26.468,MotorSequenceLearning,2024.2.1,81.93251805026416,2024-10-14 17h59.39.582131 +0530,
150,v,197,1,49,v,1,0.299058945998695,None,49,1,197,1,,,,,473.82547525300106,,473.8108397880005,473.82547525300106,474.80891978399995,474.80891978399995,474.80891978399995,474.80891978399995,474.81599617400025,475.80878190600015,475.80878190600015,476.11328349200085,v,1,0.299058945998695,None,,,,,085369,001,2024-10-14_17h59.26.468,MotorSequenceLearning,2024.2.1,81.93251805026416,2024-10-14 17h59.39.582131 +0530,
50,c,198,2,49,c,1,0.39224566600023536,None,49,2,198,2,,,,,476.1247550320004,,476.11371722700096,476.1247550320004,477.1089463690005,477.1089463690005,477.1089463690005,477.1089463690005,477.116294761001,478.1093235219996,478.1093235219996,478.5128628750008,c,1,0.39224566600023536,None,,,,,085369,001,2024-10-14_17h59.26.468,MotorSequenceLearning,2024.2.1,81.93251805026416,2024-10-14 17h59.39.582131 +0530,
-150,z,199,3,49,z,1,0.3153793080000469,None,49,3,199,3,,,,,478.52450402700015,,478.5133426749999,478.52450402700015,479.50884433099964,479.50884433099964,479.50884433099964,479.50884433099964,479.5164031280001,480.52488157100015,480.52488157100015,480.844855102001,z,1,0.3153793080000469,None,,,,,085369,001,2024-10-14_17h59.26.468,MotorSequenceLearning,2024.2.1,81.93251805026416,2024-10-14 17h59.39.582131 +0530,
-50,x,0,0,0,x,1,0.5545677270001761,None,,,,,0,0,0,0,480.8630030860004,,480.85217135899984,480.8630030860004,481.8419017840006,481.8419017840006,481.8419017840006,481.8419017840006,481.8583356830004,482.8431806360004,482.8431806360004,483.4107034389999,,,,,x,1,0.5545677270001761,None,085369,001,2024-10-14_17h59.26.468,MotorSequenceLearning,2024.2.1,81.93251805026416,2024-10-14 17h59.39.582131 +0530,
50,c,1,1,0,v,0,0.8015670550012146,None,,,,,0,1,1,2,483.42494956500013,,483.41119615200114,483.42494956500013,484.4085121370008,484.4085121370008,484.4085121370008,484.4085121370008,484.41594877100033,485.41071957299937,485.41071957299937,486.22153743200033,,,,,v,0,0.8015670550012146,None,085369,001,2024-10-14_17h59.26.468,MotorSequenceLearning,2024.2.1,81.93251805026416,2024-10-14 17h59.39.582131 +0530,
150,v,2,2,0,v,1,0.7577145800005383,None,,,,,0,2,2,1,486.23274242499974,,486.2223375350004,486.23274242499974,487.21581840600084,487.21581840600084,487.21581840600084,487.21581840600084,487.22682983900086,488.2249470709994,488.2249470709994,488.98595726700114,,,,,v,1,0.7577145800005383,None,085369,001,2024-10-14_17h59.26.468,MotorSequenceLearning,2024.2.1,81.93251805026416,2024-10-14 17h59.39.582131 +0530,
50,c,3,3,1,c,1,0.9584831160009344,None,,,,,1,3,3,2,488.9975270390005,,488.98662348700054,488.9975270390005,489.9823613770004,489.9823613770004,489.9823613770004,489.9823613770004,489.9924540129996,490.9837887089998,490.9837887089998,491.96031051700083,,,,,c,1,0.9584831160009344,None,085369,001,2024-10-14_17h59.26.468,MotorSequenceLearning,2024.2.1,81.93251805026416,2024-10-14 17h59.39.582131 +0530,
150,v,4,4,1,v,1,1.0174539939998795,None,,,,,1,4,4,1,491.97598245300105,,491.960793309001,491.97598245300105,492.9598049239994,492.9598049239994,492.9598049239994,492.9598049239994,492.96709038799963,493.95737004200055,493.95737004200055,494.97807085100067,,,,,v,1,1.0174539939998795,None,085369,001,2024-10-14_17h59.26.468,MotorSequenceLearning,2024.2.1,81.93251805026416,2024-10-14 17h59.39.582131 +0530,
150,v,5,5,2,v,1,0.7235968239983777,None,,,,,2,5,5,1,494.990723582001,,494.97859116400105,494.990723582001,495.98324189699997,495.98324189699997,495.98324189699997,495.98324189699997,495.98324189699997,496.9754065300003,496.9754065300003,497.70436713900017,,,,,v,1,0.7235968239983777,None,085369,001,2024-10-14_17h59.26.468,MotorSequenceLearning,2024.2.1,81.93251805026416,2024-10-14 17h59.39.582131 +0530,
-150,z,6,6,0,z,1,0.5748649560009653,None,,,,,0,6,6,3,497.71493167100016,,497.7051736760004,497.71493167100016,498.69934933700097,498.69934933700097,498.69934933700097,498.69934933700097,498.70879904700087,499.70004658400103,499.70004658400103,500.2778680299998,,,,,z,1,0.5748649560009653,None,085369,001,2024-10-14_17h59.26.468,MotorSequenceLearning,2024.2.1,81.93251805026416,2024-10-14 17h59.39.582131 +0530,
-50,x,7,7,1,x,1,0.7366615099999763,None,,,,,1,7,7,0,500.2885290890008,,500.2782276050002,500.2885290890008,501.2755444560007,501.2755444560007,501.2755444560007,501.2755444560007,501.28260634400067,502.29269762900003,502.29269762900003,503.0438708260008,,,,,x,1,0.7366615099999763,None,085369,001,2024-10-14_17h59.26.468,MotorSequenceLearning,2024.2.1,81.93251805026416,2024-10-14 17h59.39.582131 +0530,
-150,z,8,8,1,z,1,0.7231576249996579,None,,,,,1,8,8,3,503.05592495100063,,503.04436148199966,503.05592495100063,504.0418785820002,504.0418785820002,504.0418785820002,504.0418785820002,504.04944333300045,505.05741738899997,505.05741738899997,505.7865959690007,,,,,z,1,0.7231576249996579,None,085369,001,2024-10-14_17h59.26.468,MotorSequenceLearning,2024.2.1,81.93251805026416,2024-10-14 17h59.39.582131 +0530,
-50,x,9,9,2,x,1,0.7286778340003366,None,,,,,2,9,9,0,505.79792346900103,,505.78720543599957,505.79792346900103,506.7932686460008,506.7932686460008,506.7932686460008,506.7932686460008,506.8081696490008,507.7911929540005,507.7911929540005,508.5269582860001,,,,,x,1,0.7286778340003366,None,085369,001,2024-10-14_17h59.26.468,MotorSequenceLearning,2024.2.1,81.93251805026416,2024-10-14 17h59.39.582131 +0530,
150,v,10,10,3,v,1,0.475880572999813,None,,,,,3,10,10,1,508.53658815900053,,508.5273825860004,508.53658815900053,509.5243904750005,509.5243904750005,509.5243904750005,509.5243904750005,509.5308791309999,510.5246709010007,510.5246709010007,511.00360592000106,,,,,v,1,0.475880572999813,None,085369,001,2024-10-14_17h59.26.468,MotorSequenceLearning,2024.2.1,81.93251805026416,2024-10-14 17h59.39.582131 +0530,
-50,x,11,11,3,x,1,0.490602260999367,None,,,,,3,11,11,0,511.013300048,,511.00406317300076,511.013300048,512.0007685410001,512.0007685410001,512.0007685410001,512.0007685410001,512.0115228720006,513.0084300569997,513.0084300569997,513.511927679001,,,,,x,1,0.490602260999367,None,085369,001,2024-10-14_17h59.26.468,MotorSequenceLearning,2024.2.1,81.93251805026416,2024-10-14 17h59.39.582131 +0530,
50,c,12,12,2,c,1,0.6793544819993258,None,,,,,2,12,12,2,513.5251385600004,,513.5125341920011,513.5251385600004,514.5085252730005,514.5085252730005,514.5085252730005,514.5085252730005,514.5180957379998,515.5094880910001,515.5094880910001,516.1977613809995,,,,,c,1,0.6793544819993258,None,085369,001,2024-10-14_17h59.26.468,MotorSequenceLearning,2024.2.1,81.93251805026416,2024-10-14 17h59.39.582131 +0530,
-150,z,13,13,2,z,1,0.6018401979999908,None,,,,,2,13,13,3,516.211995384001,,516.1982467350008,516.211995384001,517.1912639410002,517.1912639410002,517.1912639410002,517.1912639410002,517.2245488589997,518.2071761170009,518.2071761170009,518.8130027010011,,,,,z,1,0.6018401979999908,None,085369,001,2024-10-14_17h59.26.468,MotorSequenceLearning,2024.2.1,81.93251805026416,2024-10-14 17h59.39.582131 +0530,
150,v,14,14,4,v,1,0.4769282409997686,None,,,,,4,14,14,1,518.8238097169997,,518.8134938719995,518.8238097169997,519.8256074950004,519.8256074950004,519.8256074950004,519.8256074950004,519.8256074950004,520.8083021519997,520.8083021519997,521.2966089830006,,,,,v,1,0.4769282409997686,None,085369,001,2024-10-14_17h59.26.468,MotorSequenceLearning,2024.2.1,81.93251805026416,2024-10-14 17h59.39.582131 +0530,
-50,x,15,15,4,x,1,0.5422293650008214,None,,,,,4,15,15,0,521.3102154610006,,521.297204288001,521.3102154610006,522.2910426029994,522.2910426029994,522.2910426029994,522.2910426029994,522.3085062930004,523.2934691640003,523.2934691640003,523.8473569199996,,,,,x,1,0.5422293650008214,None,085369,001,2024-10-14_17h59.26.468,MotorSequenceLearning,2024.2.1,81.93251805026416,2024-10-14 17h59.39.582131 +0530,
50,c,16,16,3,c,1,0.5521128470008989,None,,,,,3,16,16,2,523.8619567660007,,523.8479654670009,523.8619567660007,524.8412963890005,524.8412963890005,524.8412963890005,524.8412963890005,524.8587896810004,525.857668648001,525.857668648001,526.4264268610004,,,,,c,1,0.5521128470008989,None,085369,001,2024-10-14_17h59.26.468,MotorSequenceLearning,2024.2.1,81.93251805026416,2024-10-14 17h59.39.582131 +0530,
150,v,17,17,5,v,1,0.39436135299911257,None,,,,,5,17,17,1,526.4406882530002,,526.4269274849994,526.4406882530002,527.42416185,527.42416185,527.42416185,527.42416185,527.4309286629996,528.4244318229994,528.4244318229994,528.8293258680005,,,,,v,1,0.39436135299911257,None,085369,001,2024-10-14_17h59.26.468,MotorSequenceLearning,2024.2.1,81.93251805026416,2024-10-14 17h59.39.582131 +0530,
150,v,18,18,6,v,1,0.534119035999538,None,,,,,6,18,18,1,528.8413479230003,,528.8298020769998,528.8413479230003,529.8247943999995,529.8247943999995,529.8247943999995,529.8247943999995,529.8315766659998,530.826959895001,530.826959895001,531.367534983001,,,,,v,1,0.534119035999538,None,085369,001,2024-10-14_17h59.26.468,MotorSequenceLearning,2024.2.1,81.93251805026416,2024-10-14 17h59.39.582131 +0530,
50,c,19,19,4,c,1,0.6121773609993397,None,,,,,4,19,19,2,531.3771610240001,,531.3679065590004,531.3771610240001,532.3651769120006,532.3651769120006,532.3651769120006,532.3651769120006,532.3747068419998,533.3657169039998,533.3657169039998,533.996593494001,,,,,c,1,0.6121773609993397,None,085369,001,2024-10-14_17h59.26.468,MotorSequenceLearning,2024.2.1,81.93251805026416,2024-10-14 17h59.39.582131 +0530,
150,v,20,20,7,v,1,0.5983247880012641,None,,,,,7,20,20,1,534.010154036001,,533.997211508,534.010154036001,534.991588035,534.991588035,534.991588035,534.991588035,535.0090060010007,535.9918098140006,535.9918098140006,536.5945805579995,,,,,v,1,0.5983247880012641,None,085369,001,2024-10-14_17h59.26.468,MotorSequenceLearning,2024.2.1,81.93251805026416,2024-10-14 17h59.39.582131 +0530,
50,c,21,21,5,c,1,0.524453285999698,None,,,,,5,21,21,2,536.6074382780007,,536.5951894200007,536.6074382780007,537.5911092059996,537.5911092059996,537.5911092059996,537.5911092059996,537.5984508580004,538.5911605849997,538.5911605849997,539.1189300679998,,,,,c,1,0.524453285999698,None,085369,001,2024-10-14_17h59.26.468,MotorSequenceLearning,2024.2.1,81.93251805026416,2024-10-14 17h59.39.582131 +0530,
-50,x,22,22,5,x,1,0.42698479299906467,None,,,,,5,22,22,0,539.1299153109994,,539.1195664450006,539.1299153109994,540.1133519110008,540.1133519110008,540.1133519110008,540.1133519110008,540.1237023230005,541.1160717309995,541.1160717309995,541.5512601099999,,,,,x,1,0.42698479299906467,None,085369,001,2024-10-14_17h59.26.468,MotorSequenceLearning,2024.2.1,81.93251805026416,2024-10-14 17h59.39.582131 +0530,
50,c,23,23,6,c,1,0.7433274330014683,None,,,,,6,23,23,2,541.5613460370005,,541.5516233399994,541.5613460370005,542.5493339889999,542.5493339889999,542.5493339889999,542.5493339889999,542.5739330790002,543.5496861840002,543.5496861840002,544.2967945680011,,,,,c,1,0.7433274330014683,None,085369,001,2024-10-14_17h59.26.468,MotorSequenceLearning,2024.2.1,81.93251805026416,2024-10-14 17h59.39.582131 +0530,
-150,z,24,24,3,z,1,0.5234081510006945,None,,,,,3,24,24,3,544.306836361,,544.2971908840009,544.306836361,545.3075465590009,545.3075465590009,545.3075465590009,545.3075465590009,545.3251140350003,546.2988594769995,546.2988594769995,546.8281030950002,,,,,z,1,0.5234081510006945,None,085369,001,2024-10-14_17h59.26.468,MotorSequenceLearning,2024.2.1,81.93251805026416,2024-10-14 17h59.39.582131 +0530,
150,v,25,25,8,v,1,0.4690589239999099,None,,,,,8,25,25,1,546.8400793849996,,546.8287818360004,546.8400793849996,547.8243142110005,547.8243142110005,547.8243142110005,547.8243142110005,547.8313789370004,548.8251897810005,548.8251897810005,549.3033883429998,,,,,v,1,0.4690589239999099,None,085369,001,2024-10-14_17h59.26.468,MotorSequenceLearning,2024.2.1,81.93251805026416,2024-10-14 17h59.39.582131 +0530,
150,v,26,26,9,v,1,0.5416997720003565,None,,,,,9,26,26,1,549.3148600220011,,549.3038915460002,549.3148600220011,550.2997831770008,550.2997831770008,550.2997831770008,550.2997831770008,550.3243717990008,551.2989347010007,551.2989347010007,551.8441907310007,,,,,v,1,0.5416997720003565,None,085369,001,2024-10-14_17h59.26.468,MotorSequenceLearning,2024.2.1,81.93251805026416,2024-10-14 17h59.39.582131 +0530,
50,c,27,27,7,c,1,0.5046076809994702,None,,,,,7,27,27,2,551.8560467019997,,551.8449723890008,551.8560467019997,552.8412744960006,552.8412744960006,552.8412744960006,552.8412744960006,552.8487148050008,553.8417852420007,553.8417852420007,554.3596634469995,,,,,c,1,0.5046076809994702,None,085369,001,2024-10-14_17h59.26.468,MotorSequenceLearning,2024.2.1,81.93251805026416,2024-10-14 17h59.39.582131 +0530,
50,c,28,28,8,c,1,0.453480098,None,,,,,8,28,28,2,554.3712378010005,,554.3601418430007,554.3712378010005,555.3598676900001,555.3598676900001,555.3598676900001,555.3598676900001,555.3672529110008,556.3574290239994,556.3574290239994,556.8190446490007,,,,,c,1,0.453480098,None,085369,001,2024-10-14_17h59.26.468,MotorSequenceLearning,2024.2.1,81.93251805026416,2024-10-14 17h59.39.582131 +0530,
50,c,29,29,9,c,1,0.4754762180000398,None,,,,,9,29,29,2,556.8290996890009,,556.8194817490003,556.8290996890009,557.8154758159999,557.8154758159999,557.8154758159999,557.8154758159999,557.8252276969997,558.8246713959998,558.8246713959998,559.3036597299997,,,,,c,1,0.4754762180000398,None,085369,001,2024-10-14_17h59.26.468,MotorSequenceLearning,2024.2.1,81.93251805026416,2024-10-14 17h59.39.582131 +0530,
-150,z,30,30,4,z,1,0.6374397469990072,None,,,,,4,30,30,3,559.3153390629996,,559.3043499830001,559.3153390629996,560.2983317319995,560.2983317319995,560.2983317319995,560.2983317319995,560.3078059590007,561.2987317269999,561.2987317269999,561.9432443879996,,,,,z,1,0.6374397469990072,None,085369,001,2024-10-14_17h59.26.468,MotorSequenceLearning,2024.2.1,81.93251805026416,2024-10-14 17h59.39.582131 +0530,
150,v,31,31,10,v,1,0.5427353420000145,None,,,,,10,31,31,1,561.9572674890005,,561.9437351409997,561.9572674890005,562.941067361,562.941067361,562.941067361,562.941067361,562.9484561940008,563.9403243079996,563.9403243079996,564.4933575710002,,,,,v,1,0.5427353420000145,None,085369,001,2024-10-14_17h59.26.468,MotorSequenceLearning,2024.2.1,81.93251805026416,2024-10-14 17h59.39.582131 +0530,
-150,z,32,32,5,z,1,0.4380877270014025,None,,,,,5,32,32,3,564.5052886270005,,564.493845424,564.5052886270005,565.4911881900007,565.4911881900007,565.4911881900007,565.4911881900007,565.4982792270002,566.4936862169998,566.4936862169998,566.9430298160005,,,,,z,1,0.4380877270014025,None,085369,001,2024-10-14_17h59.26.468,MotorSequenceLearning,2024.2.1,81.93251805026416,2024-10-14 17h59.39.582131 +0530,
-50,x,33,33,6,x,1,0.5661340120004752,None,,,,,6,33,33,0,566.9548463640003,,566.9434814270007,566.9548463640003,567.9411006900009,567.9411006900009,567.9411006900009,567.9411006900009,567.9484686649994,568.9404347359996,568.9404347359996,569.5110108600002,,,,,x,1,0.5661340120004752,None,085369,001,2024-10-14_17h59.26.468,MotorSequenceLearning,2024.2.1,81.93251805026416,2024-10-14 17h59.39.582131 +0530,
-150,z,34,34,6,z,1,0.4924674520007102,None,,,,,6,34,34,3,569.5224560719998,,569.5117744439995,569.5224560719998,570.5243313290011,570.5243313290011,570.5243313290011,570.5243313290011,570.5414872860001,571.510030544001,571.510030544001,572.0119436549994,,,,,z,1,0.4924674520007102,None,085369,001,2024-10-14_17h59.26.468,MotorSequenceLearning,2024.2.1,81.93251805026416,2024-10-14 17h59.39.582131 +0530,
150,v,35,35,11,v,1,0.4586871150004299,None,,,,,11,35,35,1,572.0235298080006,,572.0124725599999,572.0235298080006,573.0070774859996,573.0070774859996,573.0070774859996,573.0070774859996,573.0144889029998,574.0086278769995,574.0086278769995,574.4762188610002,,,,,v,1,0.4586871150004299,None,085369,001,2024-10-14_17h59.26.468,MotorSequenceLearning,2024.2.1,81.93251805026416,2024-10-14 17h59.39.582131 +0530,
50,c,36,36,10,c,1,0.43404476400064596,None,,,,,10,36,36,2,574.4876136990006,,574.476733585001,574.4876136990006,575.4744111529999,575.4744111529999,575.4744111529999,575.4744111529999,575.481610103001,576.4742180520007,576.4742180520007,576.9124440169999,,,,,c,1,0.43404476400064596,None,085369,001,2024-10-14_17h59.26.468,MotorSequenceLearning,2024.2.1,81.93251805026416,2024-10-14 17h59.39.582131 +0530,
150,v,37,37,12,v,1,0.49807148900072207,None,,,,,12,37,37,1,576.9239819070008,,576.9129321130004,576.9239819070008,577.9075034310008,577.9075034310008,577.9075034310008,577.9075034310008,577.9149951979998,578.9236174140005,578.9236174140005,579.42708795,,,,,v,1,0.49807148900072207,None,085369,001,2024-10-14_17h59.26.468,MotorSequenceLearning,2024.2.1,81.93251805026416,2024-10-14 17h59.39.582131 +0530,
-50,x,38,38,7,x,1,0.6144659750007122,None,,,,,7,38,38,0,579.4402333960006,,579.4277183570011,579.4402333960006,580.4400334880011,580.4400334880011,580.4400334880011,580.4400334880011,580.4577472330002,581.4280235660008,581.4280235660008,582.0463167819998,,,,,x,1,0.6144659750007122,None,085369,001,2024-10-14_17h59.26.468,MotorSequenceLearning,2024.2.1,81.93251805026416,2024-10-14 17h59.39.582131 +0530,
-50,x,39,39,8,x,1,0.5550653000009333,None,,,,,8,39,39,0,582.060674884,,582.0471115929995,582.060674884,583.0410066910008,583.0410066910008,583.0410066910008,583.0410066910008,583.0574337670005,584.0396495170007,584.0396495170007,584.609807199,,,,,x,1,0.5550653000009333,None,085369,001,2024-10-14_17h59.26.468,MotorSequenceLearning,2024.2.1,81.93251805026416,2024-10-14 17h59.39.582131 +0530,
150,v,40,40,13,v,1,0.45138222000059613,None,,,,,13,40,40,1,584.6163820460006,,584.6103344540006,584.6163820460006,585.6072145369999,585.6072145369999,585.6072145369999,585.6072145369999,585.6153613229999,586.6237758620009,586.6237758620009,587.077418674,,,,,v,1,0.45138222000059613,None,085369,001,2024-10-14_17h59.26.468,MotorSequenceLearning,2024.2.1,81.93251805026416,2024-10-14 17h59.39.582131 +0530,
150,v,41,41,14,v,1,0.5616373119992204,None,,,,,14,41,41,1,587.0870247260009,,587.0779559769999,587.0870247260009,588.073405268,588.073405268,588.073405268,588.073405268,588.0807106699995,589.0899813180004,589.0899813180004,589.6588845290007,,,,,v,1,0.5616373119992204,None,085369,001,2024-10-14_17h59.26.468,MotorSequenceLearning,2024.2.1,81.93251805026416,2024-10-14 17h59.39.582131 +0530,
-150,z,42,42,7,z,1,0.590543059999618,None,,,,,7,42,42,3,589.6745333529998,,589.6593864530005,589.6745333529998,590.6577413930008,590.6577413930008,590.6577413930008,590.6577413930008,590.6649921890003,591.6576212559994,591.6576212559994,592.2515673020007,,,,,z,1,0.590543059999618,None,085369,001,2024-10-14_17h59.26.468,MotorSequenceLearning,2024.2.1,81.93251805026416,2024-10-14 17h59.39.582131 +0530,
