delay,freq,condition,thisN,thisTrialN,thisRepN,key_resp.keys,key_resp.rt,key_resp.duration,textbox.text,button.numClicks,button.timesOn,button.timesOff,trials.thisRepN,trials.thisTrialN,trials.thisN,trials.thisIndex,thisRow.t,notes,trial.started,polygon.started,polygon_2.started,key_resp.started,polygon.stopped,trial.stopped,trials.key_resp.keys,trials.key_resp.rt,trials.key_resp.duration,Beep.started,sound_1.started,sound_1.stopped,Beep.stopped,response.started,text.started,textbox.started,button.started,response.stopped,trials.textbox.text,trials.button.numClicks,trials.button.timesOn,trials.button.timesOff,participant,session,date,expName,psychopyVersion,frameRate,expStart,
0.7,1000,exp,0,0,0,space,0.3664069290025509,None,88 ,1,[2.3564224100045976],[2.3564459910048754],0,0,0,5,0.039820254998630844,,0.022908489001565613,0.039820254998630844,0.9948819880009978,0.9948819880009978,1.0347817649962963,1.3818287030007923,space,0.3664069290025509,None,1.3823926969998865,2.0853396916684384,2.421339653999894,2.3815898890024982,2.3824846839997917,2.421339653999894,2.421339653999894,2.421339653999894,4.779109805000189,88 ,1,[2.3564224100045976],[2.3564459910048754],992430,001,2024-11-13_13h46.00.122,IntentionBinding_Experiment,2024.2.1,80.31990841212867,2024-11-13 13h46.36.262430 +0530,
0.4,1000,exp,1,1,0,space,1.6708816870013834,None,55,1,[1.0744322250029654],[1.0744457340042572],0,1,1,10,4.785278016002849,,4.77939018500183,4.785278016002849,5.7781718830010504,5.7781718830010504,5.784406302002026,7.454194332996849,space,1.6708816870013834,None,7.454727461001312,7.86156424266325,8.167256751003151,8.148892272998637,8.14949968199653,8.167256751003151,8.167256751003151,8.167256751003151,9.243662020999182,55,1,[1.0744322250029654],[1.0744457340042572],992430,001,2024-11-13_13h46.00.122,IntentionBinding_Experiment,2024.2.1,80.31990841212867,2024-11-13 13h46.36.262430 +0530,
0.1,1000,exp,2,2,0,space,2.543239339000138,None,888,1,[1.3578611180055304],[1.3578700380021473],0,2,2,3,9.249717106999015,,9.243909621000057,9.249717106999015,10.234136327999295,10.234136327999295,10.244732915001805,12.780143586998747,space,2.543239339000138,None,12.780698486996698,12.88506529966641,13.19038893400284,13.172403933000169,13.173028320001322,13.19038893400284,13.19038893400284,13.19038893400284,14.549352713002008,888,1,[1.3578611180055304],[1.3578700380021473],992430,001,2024-11-13_13h46.00.122,IntentionBinding_Experiment,2024.2.1,80.31990841212867,2024-11-13 13h46.36.262430 +0530,
0.7,1000,exp,3,3,0,space,0.404837691996363,None,77,1,[1.0418865169995115],[1.0418982030023471],0,3,3,11,14.555509997997433,,14.549601093996898,14.555509997997433,15.544704872998409,15.544704872998409,15.551221622001322,15.963730028997816,space,0.404837691996363,None,15.964253493999422,16.666872731668505,16.974478862997785,16.955883103000815,16.9572741209995,16.974478862997785,16.974478862997785,16.974478862997785,18.01781715299876,77,1,[1.0418865169995115],[1.0418982030023471],992430,001,2024-11-13_13h46.00.122,IntentionBinding_Experiment,2024.2.1,80.31990841212867,2024-11-13 13h46.36.262430 +0530,
0.4,1000,exp,4,4,0,space,0.9333706010002061,None,333,1,[1.8109746179979993],[1.810985260999587],0,4,4,7,18.025261246999435,,18.01810153599945,18.025261246999435,19.01264594699751,19.01264594699751,19.0202766729999,19.94767272599711,space,0.9333706010002061,None,19.94825089599908,20.350272042666134,20.65720703700208,20.639018374000443,20.639628149998316,20.65720703700208,20.65720703700208,20.65720703700208,22.469175168997026,333,1,[1.8109746179979993],[1.810985260999587],992430,001,2024-11-13_13h46.00.122,IntentionBinding_Experiment,2024.2.1,80.31990841212867,2024-11-13 13h46.36.262430 +0530,
0.1,1000,exp,5,5,0,space,0.653410607999831,None,121,1,[2.5592335070032277],[2.559245729004033],0,5,5,9,22.478448617999675,,22.469437537001795,22.478448617999675,23.46737200699863,23.46737200699863,23.46737200699863,24.129374290998385,space,0.653410607999831,None,24.12991333100217,24.228928012668135,24.53216900499683,24.51493376000144,24.515536439001153,24.53216900499683,24.53216900499683,24.53216900499683,27.093294266996963,121,1,[2.5592335070032277],[2.559245729004033],992430,001,2024-11-13_13h46.00.122,IntentionBinding_Experiment,2024.2.1,80.31990841212867,2024-11-13 13h46.36.262430 +0530,
0.7,1000,exp,6,6,0,space,0.35026321800251026,None,345,1,[1.6300965970003745],[1.6301084419974359],0,6,6,8,27.099768015003065,,27.093572054000106,27.099768015003065,28.08401449899975,28.08401449899975,28.094533638999565,28.43679006399907,space,0.35026321800251026,None,28.43732541299687,29.145545979667318,29.44911134999711,29.431815564996214,29.43242101099895,29.44911134999711,29.44911134999711,29.44911134999711,31.080107583002246,345,1,[1.6300965970003745],[1.6301084419974359],992430,001,2024-11-13_13h46.00.122,IntentionBinding_Experiment,2024.2.1,80.31990841212867,2024-11-13 13h46.36.262430 +0530,
0.1,1000,exp,7,7,0,space,0.403869442998257,None,2,1,[1.5332007940014591],[1.5332147150038509],0,7,7,6,31.09514276000118,,31.080353994999314,31.09514276000118,32.07916222199856,32.07916222199856,32.08634981200157,32.48679331700259,space,0.403869442998257,None,32.487422218000575,32.595694739666456,32.90050205500302,32.882613173998834,32.883273615996586,32.90050205500302,32.90050205500302,32.90050205500302,34.43470117599645,2,1,[1.5332007940014591],[1.5332147150038509],992430,001,2024-11-13_13h46.00.122,IntentionBinding_Experiment,2024.2.1,80.31990841212867,2024-11-13 13h46.36.262430 +0530,
0.7,400,unexp,8,8,0,space,0.31241179799690144,None,45,1,[1.6024033240028075],[1.6024364530021558],0,8,8,2,34.44199672999821,,34.43498127099883,34.44199672999821,35.43391175600118,35.43391175600118,35.43391175600118,35.748261291002564,space,0.31241179799690144,None,35.749028188998636,36.45264835566583,36.75754663699627,36.73816898399673,36.73881896399689,36.75754663699627,36.75754663699627,36.75754663699627,38.36159983000107,45,1,[1.6024033240028075],[1.6024364530021558],992430,001,2024-11-13_13h46.00.122,IntentionBinding_Experiment,2024.2.1,80.31990841212867,2024-11-13 13h46.36.262430 +0530,
0.4,1000,exp,9,9,0,space,1.0677491110036499,None,234,1,[1.6445633380062645],[1.64457375100028],0,9,9,4,38.368991041999834,,38.36187505900307,38.368991041999834,39.35297822400025,39.35297822400025,39.36321256800147,40.430747828002495,space,1.0677491110036499,None,40.43134466899937,40.83450768966965,41.139400660998945,41.12144171100226,41.12208086899773,41.139400660998945,41.139400660998945,41.139400660998945,42.785050965001574,234,1,[1.6445633380062645],[1.64457375100028],992430,001,2024-11-13_13h46.00.122,IntentionBinding_Experiment,2024.2.1,80.31990841212867,2024-11-13 13h46.36.262430 +0530,
0.1,400,unexp,10,10,0,space,0.5944496630036156,None,55,1,[1.52125008800067],[1.5212599229998887],0,10,10,0,42.794994515003054,,42.78533485299704,42.794994515003054,43.782675390000804,43.782675390000804,43.79504689500027,44.385564452000835,space,0.5944496630036156,None,44.38648125399777,44.48672105366519,44.79072750799969,44.77242416400259,44.7731433930021,44.79072750799969,44.79072750799969,44.79072750799969,46.313061508997635,55,1,[1.52125008800067],[1.5212599229998887],992430,001,2024-11-13_13h46.00.122,IntentionBinding_Experiment,2024.2.1,80.31990841212867,2024-11-13 13h46.36.262430 +0530,
0.4,400,unexp,11,11,0,space,0.3827913549976074,None,456,1,[2.461536459995841],[2.4615492109951447],0,11,11,1,46.31984484699933,,46.31330756699754,46.31984484699933,47.31147793799755,47.31147793799755,47.318346473999554,47.69787850799912,space,0.3827913549976074,None,47.69851557700167,48.10105456266707,48.40627525399759,48.387987335001526,48.38861491499847,48.40627525399759,48.40627525399759,48.40627525399759,50.869072112996946,456,1,[2.461536459995841],[2.4615492109951447],992430,001,2024-11-13_13h46.00.122,IntentionBinding_Experiment,2024.2.1,80.31990841212867,2024-11-13 13h46.36.262430 +0530,
0.7,1000,exp,12,0,1,space,0.5076925800021854,None,234,1,[1.903539715000079],[1.9036061740043806],1,0,12,5,50.878567630999896,,50.86933528300142,50.878567630999896,51.86149948900129,51.86149948900129,51.86851361700246,52.383398915000726,space,0.5076925800021854,None,52.38394072999654,53.083948040668716,53.388359579999815,53.37145596499613,53.37206349999906,53.388359579999815,53.388359579999815,53.388359579999815,55.29375011900265,234,1,[1.903539715000079],[1.9036061740043806],992430,001,2024-11-13_13h46.00.122,IntentionBinding_Experiment,2024.2.1,80.31990841212867,2024-11-13 13h46.36.262430 +0530,
0.1,400,unexp,13,1,1,space,0.7266226120045758,None,789,1,[1.69600096999784],[1.696013218999724],1,1,13,0,55.30068343199673,,55.29419692700321,55.30068343199673,56.28466074899916,56.28466074899916,56.29467660999944,57.01362862800306,space,0.7266226120045758,None,57.01424075900286,57.11761056866477,57.42191444800119,57.40431147199706,57.40492291300325,57.42191444800119,57.42191444800119,57.42191444800119,59.118903841001156,789,1,[1.69600096999784],[1.696013218999724],992430,001,2024-11-13_13h46.00.122,IntentionBinding_Experiment,2024.2.1,80.31990841212867,2024-11-13 13h46.36.262430 +0530,
0.7,1000,exp,14,2,1,space,1.168231272000412,None,87,1,[1.0778000829959637],[1.0778199280030094],1,2,14,8,59.12853178999649,,59.119156677996216,59.12853178999649,60.111257609998574,60.111257609998574,60.11823468699731,61.29467525899963,space,1.168231272000412,None,61.295229959003336,61.99468261866811,62.2986516259989,62.28106747700076,62.28170273100113,62.2986516259989,62.2986516259989,62.2986516259989,63.37812959399889,87,1,[1.0778000829959637],[1.0778199280030094],992430,001,2024-11-13_13h46.00.122,IntentionBinding_Experiment,2024.2.1,80.31990841212867,2024-11-13 13h46.36.262430 +0530,
0.7,400,unexp,15,3,1,space,0.3842568959953496,None,67,1,[1.4406001399984234],[1.440612833997875],1,3,15,2,63.38475479799672,,63.37840721300017,63.38475479799672,64.36711834600283,64.36711834600283,64.37792804499622,64.75527820299612,space,0.3842568959953496,None,64.75585598599719,65.46113937266297,65.7629890629978,65.7479800450019,65.74862371799827,65.7629890629978,65.7629890629978,65.7629890629978,67.20478329699836,67,1,[1.4406001399984234],[1.440612833997875],992430,001,2024-11-13_13h46.00.122,IntentionBinding_Experiment,2024.2.1,80.31990841212867,2024-11-13 13h46.36.262430 +0530,
0.7,1000,exp,16,4,1,space,0.4591277850049664,None,566,1,[1.5368175859985058],[1.5368371830045362],1,4,16,11,67.22776695599896,,67.20504890300072,67.22776695599896,68.20165857500251,68.20165857500251,68.21732989000157,68.66350875500211,space,0.4591277850049664,None,68.6640808029988,69.3676481706682,69.67312534299708,69.65463628499856,69.65525865700329,69.67312534299708,69.67312534299708,69.67312534299708,71.21148896899831,566,1,[1.5368175859985058],[1.5368371830045362],992430,001,2024-11-13_13h46.00.122,IntentionBinding_Experiment,2024.2.1,80.31990841212867,2024-11-13 13h46.36.262430 +0530,
0.4,400,unexp,17,5,1,space,0.424020181002561,None,565,1,[2.088002153999696],[2.0880236529992544],1,5,17,1,71.21777429599751,,71.2117433559979,71.21777429599751,72.20335020100174,72.20335020100174,72.22785341800045,72.62989568700141,space,0.424020181002561,None,72.6305394719966,73.03318284866351,73.33805803600262,73.32057512400206,73.32119531399803,73.33805803600262,73.33805803600262,73.33805803600262,75.427559001997,565,1,[2.088002153999696],[2.0880236529992544],992430,001,2024-11-13_13h46.00.122,IntentionBinding_Experiment,2024.2.1,80.31990841212867,2024-11-13 13h46.36.262430 +0530,
0.1,1000,exp,18,6,1,space,0.2694890269995085,None,567,1,[2.1960428949969355],[2.196055363994674],1,6,18,6,75.43416354800138,,75.42781778299832,75.43416354800138,76.41718036800012,76.41718036800012,76.42755161399691,76.69635423900036,space,0.2694890269995085,None,76.69691645399871,76.80057903166404,77.10424899200007,77.08730724499765,77.08791336199647,77.10424899200007,77.10424899200007,77.10424899200007,79.30151646200102,567,1,[2.1960428949969355],[2.196055363994674],992430,001,2024-11-13_13h46.00.122,IntentionBinding_Experiment,2024.2.1,80.31990841212867,2024-11-13 13h46.36.262430 +0530,
0.4,1000,exp,19,7,1,space,0.5863180980013567,None,45,1,[1.9788938849960687],[1.9789156649931101],1,7,19,10,79.3108447889972,,79.30176185299933,79.3108447889972,80.29553723299614,80.29553723299614,80.30381459999626,80.89008564699907,space,0.5863180980013567,None,80.89086708400282,81.29397275566977,81.59719566100102,81.58117475600011,81.58184469599655,81.59719566100102,81.59719566100102,81.59719566100102,83.5777669070012,45,1,[1.9788938849960687],[1.9789156649931101],992430,001,2024-11-13_13h46.00.122,IntentionBinding_Experiment,2024.2.1,80.31990841212867,2024-11-13 13h46.36.262430 +0530,
0.1,1000,exp,20,8,1,space,0.6393057189998217,None,342,1,[2.8492708220001077],[2.849279337999178],1,8,20,3,83.5849110650015,,83.57804211499752,83.5849110650015,84.567120366999,84.567120366999,84.58417655799713,85.21292279799673,space,0.6393057189998217,None,85.21356875300262,85.31878132566295,85.6287144270027,85.61391959399771,85.61451350699645,85.6287144270027,85.6287144270027,85.6287144270027,88.47898956699646,342,1,[2.8492708220001077],[2.849279337999178],992430,001,2024-11-13_13h46.00.122,IntentionBinding_Experiment,2024.2.1,80.31990841212867,2024-11-13 13h46.36.262430 +0530,
0.4,1000,exp,21,9,1,space,0.551689230996999,None,12,1,[1.4594743069974356],[1.4594853809976485],1,9,21,4,88.49499870299769,,88.47922474100051,88.49499870299769,89.4770612229986,89.4770612229986,89.49446722799621,90.04510475700226,space,0.551689230996999,None,90.04583807400195,90.4452673186645,90.75622504700004,90.73728822400153,90.73794595000072,90.75622504700004,90.75622504700004,90.75622504700004,92.21668846000102,12,1,[1.4594743069974356],[1.4594853809976485],992430,001,2024-11-13_13h46.00.122,IntentionBinding_Experiment,2024.2.1,80.31990841212867,2024-11-13 13h46.36.262430 +0530,
0.1,1000,exp,22,10,1,space,0.9687230589988758,None,23,1,[1.042160466000496],[1.0421805750011117],1,10,22,9,92.22702002900041,,92.21693581699947,92.22702002900041,93.21061980100058,93.21061980100058,93.21709623700008,94.1879545940028,space,0.9687230589988758,None,94.18861765399924,94.29423298466669,94.59620565800287,94.58055835500272,94.58116536899615,94.59620565800287,94.59620565800287,94.59620565800287,95.6397794930017,23,1,[1.042160466000496],[1.0421805750011117],992430,001,2024-11-13_13h46.00.122,IntentionBinding_Experiment,2024.2.1,80.31990841212867,2024-11-13 13h46.36.262430 +0530,
0.4,1000,exp,23,11,1,space,0.7949635690019932,None,54,1,[1.2195718329967349],[1.2195826639945153],1,11,23,7,95.64809955700184,,95.64014187599969,95.64809955700184,96.63331277300313,96.63331277300313,96.64415710399771,97.43642493800144,space,0.7949635690019932,None,97.43701148899709,97.84495650066334,98.15449145100138,98.1361630600004,98.13679498300189,98.15449145100138,98.15449145100138,98.15449145100138,99.37595551899722,54,1,[1.2195718329967349],[1.2195826639945153],992430,001,2024-11-13_13h46.00.122,IntentionBinding_Experiment,2024.2.1,80.31990841212867,2024-11-13 13h46.36.262430 +0530,
0.7,1000,exp,24,0,2,space,0.8381277500011493,None,45,1,[1.1543394430045737],[1.1543514400036656],2,0,24,11,99.38212008400296,,99.37625290700089,99.38212008400296,100.37771073899785,100.37771073899785,100.37771073899785,101.21937640500255,space,0.8381277500011493,None,101.21996578499966,101.92701646866432,102.2280149290018,102.21372552200046,102.21435710399965,102.2280149290018,102.2280149290018,102.2280149290018,103.38344880099612,45,1,[1.1543394430045737],[1.1543514400036656],992430,001,2024-11-13_13h46.00.122,IntentionBinding_Experiment,2024.2.1,80.31990841212867,2024-11-13 13h46.36.262430 +0530,
0.1,1000,exp,25,1,2,space,1.0328854620020138,None,99,1,[1.702751275995979],[1.7027612090023467],2,1,25,3,103.39064605299791,,103.38380884700018,103.39064605299791,104.37850999399961,104.37850999399961,104.38583869300055,105.41988923500321,space,1.0328854620020138,None,105.4204531639989,105.52737873566754,105.82800708300056,105.81391548999818,105.814557220001,105.82800708300056,105.82800708300056,105.82800708300056,107.53180168599647,99,1,[1.702751275995979],[1.7027612090023467],992430,001,2024-11-13_13h46.00.122,IntentionBinding_Experiment,2024.2.1,80.31990841212867,2024-11-13 13h46.36.262430 +0530,
0.4,1000,exp,26,2,2,space,2.2569574139997712,None,988,1,[1.7540934999997262],[1.7541083020041697],2,2,26,4,107.53821491399867,,107.53207099300198,107.53821491399867,108.52686375399935,108.52686375399935,108.53334840200114,110.78614177800046,space,2.2569574139997712,None,110.78667441900325,111.19345792566698,111.49509420400136,111.4799293899996,111.48055620700325,111.49509420400136,111.49509420400136,111.49509420400136,113.25025142300001,988,1,[1.7540934999997262],[1.7541083020041697],992430,001,2024-11-13_13h46.00.122,IntentionBinding_Experiment,2024.2.1,80.31990841212867,2024-11-13 13h46.36.262430 +0530,
0.1,400,unexp,27,3,2,space,0.4678763070041896,None,233,1,[2.113414424995426],[2.113427395001054],2,3,27,0,113.25792388199625,,113.25053440500051,113.25792388199625,114.25054312899738,114.25054312899738,114.25054312899738,114.72857921599643,space,0.4678763070041896,None,114.72921670399955,114.83375885366355,115.13650905100076,115.12027221100288,115.12092233199655,115.13650905100076,115.13650905100076,115.13650905100076,117.25111971599836,233,1,[2.113414424995426],[2.113427395001054],992430,001,2024-11-13_13h46.00.122,IntentionBinding_Experiment,2024.2.1,80.31990841212867,2024-11-13 13h46.36.262430 +0530,
0.7,1000,exp,28,4,2,space,0.5264802699966822,None,34,1,[1.5219039829971734],[1.5219147739990149],2,4,28,5,117.25810813200223,,117.2514759800033,117.25810813200223,118.251744494999,118.251744494999,118.251744494999,118.78637585399701,space,0.5264802699966822,None,118.78696019900235,119.49344091566697,119.79527912299818,119.78016252400266,119.78079612299916,119.79527912299818,119.79527912299818,119.79527912299818,121.31818809299875,34,1,[1.5219039829971734],[1.5219147739990149],992430,001,2024-11-13_13h46.00.122,IntentionBinding_Experiment,2024.2.1,80.31990841212867,2024-11-13 13h46.36.262430 +0530,
0.4,1000,exp,29,5,2,space,0.5153345740036457,None,214,1,[2.1522964379983023],[2.1523082529965905],2,5,29,10,121.3261785989962,,121.31851029200334,121.3261785989962,122.31614671400166,122.31614671400166,122.31614671400166,122.83587141000316,space,0.5153345740036457,None,122.83643668999866,123.24334283866871,123.5464890239964,123.53023890100303,123.53087293000135,123.5464890239964,123.5464890239964,123.5464890239964,125.69987621199834,214,1,[2.1522964379983023],[2.1523082529965905],992430,001,2024-11-13_13h46.00.122,IntentionBinding_Experiment,2024.2.1,80.31990841212867,2024-11-13 13h46.36.262430 +0530,
0.7,1000,exp,30,6,2,space,0.3261711439990904,None,453,1,[1.7453832200044417],[1.7453930460033007],2,6,30,8,125.70667716900061,,125.70012742999825,125.70667716900061,126.69458458600275,126.69458458600275,126.70236287800071,127.03007634200185,space,0.3261711439990904,None,127.03061475999857,127.73320255466776,128.04233984599705,128.02166828700138,128.0223981090021,128.04233984599705,128.04233984599705,128.04233984599705,129.78898113300238,453,1,[1.7453832200044417],[1.7453930460033007],992430,001,2024-11-13_13h46.00.122,IntentionBinding_Experiment,2024.2.1,80.31990841212867,2024-11-13 13h46.36.262430 +0530,
0.4,400,unexp,31,7,2,space,0.5365230390016222,None,456,1,[2.3269133619978675],[2.3269280940003227],2,7,31,1,129.7975539359977,,129.7894081209961,129.7975539359977,130.7830425419961,130.7830425419961,130.7939144089978,131.32822991399735,space,0.5365230390016222,None,131.3287889869971,131.73263863966375,132.04074735000177,132.02111877800053,132.02192308899976,132.04074735000177,132.04074735000177,132.04074735000177,134.36890460799623,456,1,[2.3269133619978675],[2.3269280940003227],992430,001,2024-11-13_13h46.00.122,IntentionBinding_Experiment,2024.2.1,80.31990841212867,2024-11-13 13h46.36.262430 +0530,
0.4,1000,exp,32,8,2,space,0.3445314199998393,None,564,1,[2.497526160994312],[2.4975433359941235],2,8,32,7,134.3779362389978,,134.3691658750031,134.3779362389978,135.36612523000076,135.36612523000076,135.3764663569964,135.71275656900252,space,0.3445314199998393,None,135.71329005699954,136.11844777466857,136.42844705699827,136.41354784499708,136.41423586499877,136.42844705699827,136.42844705699827,136.42844705699827,138.92715782199957,564,1,[2.497526160994312],[2.4975433359941235],992430,001,2024-11-13_13h46.00.122,IntentionBinding_Experiment,2024.2.1,80.31990841212867,2024-11-13 13h46.36.262430 +0530,
0.1,1000,exp,33,9,2,space,0.30532812300225487,None,32,1,[1.7412641500050086],[1.7412847830055398],2,9,33,6,138.9332172259965,,138.9274170389981,138.9332172259965,139.9166915129972,139.9166915129972,139.92652219299634,140.23771463600133,space,0.30532812300225487,None,140.23834570599865,140.34374393166607,140.65123972199945,140.63074995199713,140.631422475999,140.65123972199945,140.65123972199945,140.65123972199945,142.3939689050021,32,1,[1.7412641500050086],[1.7412847830055398],992430,001,2024-11-13_13h46.00.122,IntentionBinding_Experiment,2024.2.1,80.31990841212867,2024-11-13 13h46.36.262430 +0530,
0.1,1000,exp,34,10,2,space,0.6035802620026516,None,345,1,[1.7536981490047765],[1.7537086960001034],2,10,34,9,142.40064237800107,,142.3942617270004,142.40064237800107,143.38425340699905,143.38425340699905,143.394876569997,143.99575431199628,space,0.6035802620026516,None,143.99639339099667,144.10012606266926,144.41267390400026,144.39674041599937,144.3974041649999,144.41267390400026,144.41267390400026,144.41267390400026,146.1673780659985,345,1,[1.7536981490047765],[1.7537086960001034],992430,001,2024-11-13_13h46.00.122,IntentionBinding_Experiment,2024.2.1,80.31990841212867,2024-11-13 13h46.36.262430 +0530,
0.7,400,unexp,35,11,2,space,0.28422788900206797,None,562,1,[2.0213927599979797],[2.021409788998426],2,11,35,2,146.1765201849994,,146.16761854299693,146.1765201849994,147.15999393200036,147.15999393200036,147.16652342399902,147.446423348003,space,0.28422788900206797,None,147.44717131499783,148.15051267166953,148.46184372300195,148.4465592600027,148.44730152300326,148.46184372300195,148.46184372300195,148.46184372300195,150.48434650000127,562,1,[2.0213927599979797],[2.021409788998426],992430,001,2024-11-13_13h46.00.122,IntentionBinding_Experiment,2024.2.1,80.31990841212867,2024-11-13 13h46.36.262430 +0530,
0.4,1000,exp,36,0,3,space,0.3720315919999848,None,245,1,[1.6338462929998059],[1.6338594069966348],3,0,36,10,150.49444628100173,,150.48461152600066,150.49444628100173,151.48253639999893,151.48253639999893,151.49343785399833,151.86183113900188,space,0.3720315919999848,None,151.86240333200112,152.26097428166784,152.5638905980013,152.54804871800297,152.54874528599612,152.5638905980013,152.5638905980013,152.5638905980013,154.19893109900295,245,1,[1.6338462929998059],[1.6338594069966348],992430,001,2024-11-13_13h46.00.122,IntentionBinding_Experiment,2024.2.1,80.31990841212867,2024-11-13 13h46.36.262430 +0530,
0.7,1000,exp,37,1,3,space,0.43365679700218607,None,745,1,[2.1719030710009974],[2.171918847001507],3,1,37,8,154.20553244499752,,154.1991974229968,154.20553244499752,155.19314291799674,155.19314291799674,155.20020397999906,155.62993200700294,space,0.43365679700218607,None,155.63054656700115,156.33199292566522,156.63669378100167,156.6203260600014,156.62095915700047,156.63669378100167,156.63669378100167,156.63669378100167,158.80994867599657,745,1,[2.1719030710009974],[2.171918847001507],992430,001,2024-11-13_13h46.00.122,IntentionBinding_Experiment,2024.2.1,80.31990841212867,2024-11-13 13h46.36.262430 +0530,
0.4,1000,exp,38,2,3,space,1.3747171009963495,None,456,1,[3.2301034210031503],[3.2301192340019043],3,2,38,4,158.816168612997,,158.8102164209995,158.816168612997,159.8000124149985,159.8000124149985,159.80972841600305,161.17852294699696,space,1.3747171009963495,None,161.17904160799662,161.58385412766464,161.89535349400103,161.87963253199996,161.88031623799907,161.89535349400103,161.89535349400103,161.89535349400103,165.12683290000132,456,1,[3.2301034210031503],[3.2301192340019043],992430,001,2024-11-13_13h46.00.122,IntentionBinding_Experiment,2024.2.1,80.31990841212867,2024-11-13 13h46.36.262430 +0530,
0.1,1000,exp,39,3,3,space,0.4797552009986248,None,663,1,[2.347787471000629],[2.3478001230032532],3,3,39,3,165.13301192499785,,165.12709206900035,165.13301192499785,166.11581908399967,166.11581908399967,166.12623868299852,166.60307540200301,space,0.4797552009986248,None,166.6036377529963,166.70973711166542,167.01253205599642,166.99667151399626,166.99736230300186,167.01253205599642,167.01253205599642,167.01253205599642,169.3612665979963,663,1,[2.347787471000629],[2.3478001230032532],992430,001,2024-11-13_13h46.00.122,IntentionBinding_Experiment,2024.2.1,80.31990841212867,2024-11-13 13h46.36.262430 +0530,
0.7,400,unexp,40,4,3,space,1.1210113429988269,None,26,1,[1.6483267529984005],[1.648346184003458],3,4,40,2,169.36743765199935,,169.3615097619986,169.36743765199935,170.35971075900306,170.35971075900306,170.36631971500174,171.4848400050032,space,1.1210113429988269,None,171.485403632003,172.19266577966872,172.49487388299895,172.47943082499842,172.4800869449973,172.49487388299895,172.49487388299895,172.49487388299895,174.14470219599752,26,1,[1.6483267529984005],[1.648346184003458],992430,001,2024-11-13_13h46.00.122,IntentionBinding_Experiment,2024.2.1,80.31990841212867,2024-11-13 13h46.36.262430 +0530,
0.1,400,unexp,41,5,3,space,0.7685382859999663,None,254,1,[2.439418032001413],[2.439428860001499],3,5,41,0,174.15178220700182,,174.14500474899978,174.15178220700182,175.14327580400277,175.14327580400277,175.15106700199976,175.91892837100022,space,0.7685382859999663,None,175.91950250900118,176.02619481166428,176.3283402550005,176.3130352750013,176.3136747719982,176.3283402550005,176.3283402550005,176.3283402550005,178.76872324800206,254,1,[2.439418032001413],[2.439428860001499],992430,001,2024-11-13_13h46.00.122,IntentionBinding_Experiment,2024.2.1,80.31990841212867,2024-11-13 13h46.36.262430 +0530,
0.7,1000,exp,42,6,3,space,0.6456511270007468,None,456,1,[2.070286362999468],[2.070298548998835],3,6,42,11,178.77685013799783,,178.76896499699797,178.77685013799783,179.76302358999965,179.76302358999965,179.77659069999936,180.4116529439998,space,0.6456511270007468,None,180.41222192200075,181.11126307566545,181.41887309499725,181.4024997489978,181.40325234599732,181.41887309499725,181.41887309499725,181.41887309499725,183.49110034100158,456,1,[2.070286362999468],[2.070298548998835],992430,001,2024-11-13_13h46.00.122,IntentionBinding_Experiment,2024.2.1,80.31990841212867,2024-11-13 13h46.36.262430 +0530,
0.4,1000,exp,43,7,3,space,0.4024444449969451,None,765,1,[1.634292152004491],[1.6343018810002832],3,7,43,7,183.4979770189966,,183.49143030500272,183.4979770189966,184.48219931399944,184.48219931399944,184.49299379599688,184.89451538799767,space,0.4024444449969451,None,184.8950969130019,185.29824905766534,185.60271612799988,185.5849994520031,185.58567012700223,185.60271612799988,185.60271612799988,185.60271612799988,187.23817828900064,765,1,[1.634292152004491],[1.6343018810002832],992430,001,2024-11-13_13h46.00.122,IntentionBinding_Experiment,2024.2.1,80.31990841212867,2024-11-13 13h46.36.262430 +0530,
0.1,1000,exp,44,8,3,space,0.39202696500433376,None,175,1,[3.4206729139987146],[3.420694780004851],3,8,44,6,187.24620606999815,,187.23870702899876,187.24620606999815,188.23214854099933,188.23214854099933,188.2427376170017,188.62787687400123,space,0.39202696500433376,None,188.62839609199727,188.73174410166783,189.03634730799968,189.0189575559998,189.0196434699974,189.03634730799968,189.03634730799968,189.03634730799968,192.45888751099847,175,1,[3.4206729139987146],[3.420694780004851],992430,001,2024-11-13_13h46.00.122,IntentionBinding_Experiment,2024.2.1,80.31990841212867,2024-11-13 13h46.36.262430 +0530,
0.1,1000,exp,45,9,3,space,0.42626812199887354,None,242,1,[2.292773840999871],[2.292790398998477],3,9,45,9,192.46518919699884,,192.45913157000177,192.46518919699884,193.44942432300013,193.44942432300013,193.45929115699983,193.8788404779989,space,0.42626812199887354,None,193.87963415800186,193.98292136566695,194.2959964010006,194.27932184300153,194.2799959749973,194.2959964010006,194.2959964010006,194.2959964010006,196.5906775370022,242,1,[2.292773840999871],[2.292790398998477],992430,001,2024-11-13_13h46.00.122,IntentionBinding_Experiment,2024.2.1,80.31990841212867,2024-11-13 13h46.36.262430 +0530,
0.7,1000,exp,46,10,3,space,0.7359203820014955,None,743,1,[1.6551576239944552],[1.6551813909973134],3,10,46,5,196.5984477660022,,196.5910057239962,196.5984477660022,197.58186371900229,197.58186371900229,197.5926502500006,198.32723458200053,space,0.7359203820014955,None,198.32788681000238,199.03199288566637,199.33528077499795,199.31879262800066,199.3194425949987,199.33528077499795,199.33528077499795,199.33528077499795,200.99216418900323,743,1,[1.6551576239944552],[1.6551813909973134],992430,001,2024-11-13_13h46.00.122,IntentionBinding_Experiment,2024.2.1,80.31990841212867,2024-11-13 13h46.36.262430 +0530,
0.4,400,unexp,47,11,3,space,0.5662204350010143,None,835,1,[2.502593737001007],[2.502606141002616],3,11,47,1,200.99898387699795,,200.99243446799665,200.99898387699795,201.98172739599977,201.98172739599977,201.99416229000053,202.55238462200214,space,0.5662204350010143,None,202.55292019400076,202.9591797066644,203.26294852200226,203.24610779600334,203.24680265600182,203.26294852200226,203.26294852200226,203.26294852200226,205.7666008669985,835,1,[2.502593737001007],[2.502606141002616],992430,001,2024-11-13_13h46.00.122,IntentionBinding_Experiment,2024.2.1,80.31990841212867,2024-11-13 13h46.36.262430 +0530,
0.4,1000,exp,48,0,4,space,0.4496835899990401,None,152,1,[2.0237041219952516],[2.023722792000626],4,0,48,10,205.77575559199613,,205.76684980100254,205.77575559199613,206.76030229099706,206.76030229099706,206.76726606600278,207.21202641499985,space,0.4496835899990401,None,207.21256934099802,207.6165259026641,207.91857360299764,207.90224799000134,207.902956042999,207.91857360299764,207.91857360299764,207.91857360299764,209.94386044699786,152,1,[2.0237041219952516],[2.023722792000626],992430,001,2024-11-13_13h46.00.122,IntentionBinding_Experiment,2024.2.1,80.31990841212867,2024-11-13 13h46.36.262430 +0530,
0.1,1000,exp,49,1,4,space,0.8689654890040401,None,252,1,[1.8203282490067068],[1.8203413460068987],4,1,49,6,209.95099073799793,,209.944180546001,209.95099073799793,210.9329296529977,210.9329296529977,210.94949237100082,211.81181698999717,space,0.8689654890040401,None,211.8123496499975,211.91553046966536,212.21847338500083,212.20268469300208,212.20340024700272,212.21847338500083,212.21847338500083,212.21847338500083,214.04060635100177,252,1,[1.8203282490067068],[1.8203413460068987],992430,001,2024-11-13_13h46.00.122,IntentionBinding_Experiment,2024.2.1,80.31990841212867,2024-11-13 13h46.36.262430 +0530,
0.4,1000,exp,50,2,4,space,0.47621569500188343,None,252,1,[1.4776922599994577],[1.477705593999417],4,2,50,4,214.0476969789961,,214.04086123900197,214.0476969789961,215.03180278900254,215.03180278900254,215.0435452449965,215.51076851999824,space,0.47621569500188343,None,215.51144294100231,215.91593848466826,216.21887718299695,216.20187603499653,216.20258109099814,216.21887718299695,216.21887718299695,216.21887718299695,217.69767518799927,252,1,[1.4776922599994577],[1.477705593999417],992430,001,2024-11-13_13h46.00.122,IntentionBinding_Experiment,2024.2.1,80.31990841212867,2024-11-13 13h46.36.262430 +0530,
0.7,1000,exp,51,3,4,space,0.35267560700594913,None,652,1,[1.3937541659979615],[1.393773361996864],4,3,51,5,217.70927174700046,,217.69793878900236,217.70927174700046,218.69242666100035,218.69242666100035,218.69961118500214,219.05208876699908,space,0.35267560700594913,None,219.05266308000137,219.75902370266365,220.06310335300077,220.04645278099633,220.04714508500183,220.06310335300077,220.06310335300077,220.06310335300077,221.45848961699812,652,1,[1.3937541659979615],[1.393773361996864],992430,001,2024-11-13_13h46.00.122,IntentionBinding_Experiment,2024.2.1,80.31990841212867,2024-11-13 13h46.36.262430 +0530,
0.7,400,unexp,52,4,4,space,1.3070181610019063,None,542,1,[2.705157092997979],[2.7051680869990378],4,4,52,2,221.4646169530024,,221.45873871300137,221.4646169530024,222.45228469499853,222.45228469499853,222.46291389100224,223.76121581599728,space,1.3070181610019063,None,223.7617846860012,224.4602579246678,224.76270443300018,224.74661652099894,224.74733515000116,224.76270443300018,224.76270443300018,224.76270443300018,227.4688852199979,542,1,[2.705157092997979],[2.7051680869990378],992430,001,2024-11-13_13h46.00.122,IntentionBinding_Experiment,2024.2.1,80.31990841212867,2024-11-13 13h46.36.262430 +0530,
0.1,1000,exp,53,5,4,space,0.8608802539965836,None,134,1,[2.7421270179984276],[2.7421365400005016],4,5,53,9,227.47738145999756,,227.4691464819989,227.47738145999756,228.46538738300296,228.46538738300296,228.47538973700284,229.33383524999954,space,0.8608802539965836,None,229.3344215899997,229.44234054466895,229.74394189700251,229.7287142319983,229.72940306099918,229.74394189700251,229.74394189700251,229.74394189700251,232.48714953500166,134,1,[2.7421270179984276],[2.7421365400005016],992430,001,2024-11-13_13h46.00.122,IntentionBinding_Experiment,2024.2.1,80.31990841212867,2024-11-13 13h46.36.262430 +0530,
0.7,1000,exp,54,6,4,space,0.538124279002659,None,734,1,[1.636598409000726],[1.6366164919963921],4,6,54,8,232.49578231499618,,232.48739666800248,232.49578231499618,233.48185021700192,233.48185021700192,233.49243984899658,234.0271791319974,space,0.538124279002659,None,234.02773150199937,234.731135395665,235.03780386599828,235.01928403400234,235.02500734599744,235.03780386599828,235.03780386599828,235.03780386599828,236.6757431110018,734,1,[1.636598409000726],[1.6366164919963921],992430,001,2024-11-13_13h46.00.122,IntentionBinding_Experiment,2024.2.1,80.31990841212867,2024-11-13 13h46.36.262430 +0530,
0.1,1000,exp,55,7,4,space,0.3363661109979148,None,631,1,[3.753938900998037],[3.7539512000003015],4,7,55,3,236.6821199219994,,236.67609193299722,236.6821199219994,237.66498668400163,237.66498668400163,237.67520405400137,238.0107519259982,space,0.3363661109979148,None,238.01131007599906,238.1162453536638,238.426967737003,238.41181721400062,238.4124958140019,238.426967737003,238.426967737003,238.426967737003,242.18189075899863,631,1,[3.753938900998037],[3.7539512000003015],992430,001,2024-11-13_13h46.00.122,IntentionBinding_Experiment,2024.2.1,80.31990841212867,2024-11-13 13h46.36.262430 +0530,
0.4,400,unexp,56,8,4,space,0.7103215009992709,None,255,1,[1.9310016840026947],[1.9310136050044093],4,8,56,1,242.18809577399952,,242.1821402630012,242.18809577399952,243.17510626599687,243.17510626599687,243.1816622490005,243.8949129620014,space,0.7103215009992709,None,243.8955249119972,244.29742508366715,244.60170297799777,244.58403555399855,244.58472669000184,244.60170297799777,244.60170297799777,244.60170297799777,246.5336692139972,255,1,[1.9310016840026947],[1.9310136050044093],992430,001,2024-11-13_13h46.00.122,IntentionBinding_Experiment,2024.2.1,80.31990841212867,2024-11-13 13h46.36.262430 +0530,
0.4,1000,exp,57,9,4,space,0.4396290910008247,None,633,1,[1.4844937970046885],[1.4845048490024055],4,9,57,7,246.54249881600117,,246.53391275699687,246.54249881600117,247.53108215500106,247.53108215500106,247.53108215500106,247.97704334199807,space,0.4396290910008247,None,247.9776276459961,248.38102893566636,248.6834275220026,248.66753150500153,248.66821553799673,248.6834275220026,248.6834275220026,248.6834275220026,250.16886351799621,633,1,[1.4844937970046885],[1.4845048490024055],992430,001,2024-11-13_13h46.00.122,IntentionBinding_Experiment,2024.2.1,80.31990841212867,2024-11-13 13h46.36.262430 +0530,
0.7,1000,exp,58,10,4,space,1.010296099993866,None,854,1,[2.4068968930005212],[2.406907664000755],4,10,58,11,250.1915728210006,,250.16914009500033,250.1915728210006,251.1650226549973,251.1650226549973,251.1813560790033,252.17894780200004,space,1.010296099993866,None,252.1795911809968,252.88082743866497,253.1917710609996,253.16985480199946,253.17063577900262,253.1917710609996,253.1917710609996,253.1917710609996,255.5999830410001,854,1,[2.4068968930005212],[2.406907664000755],992430,001,2024-11-13_13h46.00.122,IntentionBinding_Experiment,2024.2.1,80.31990841212867,2024-11-13 13h46.36.262430 +0530,
0.1,400,unexp,59,11,4,space,0.9761899859950063,None,633,1,[1.6825671429978684],[1.6825773589953315],4,11,59,0,255.60865756899875,,255.60023437700147,255.60865756899875,256.5986447000032,256.5986447000032,256.5986447000032,257.5768995649996,space,0.9761899859950063,None,257.57746071099973,257.68190079666624,257.9938149360023,257.9784010020012,257.9790891360026,257.9938149360023,257.9938149360023,257.9938149360023,259.67737165900326,633,1,[1.6825671429978684],[1.6825773589953315],992430,001,2024-11-13_13h46.00.122,IntentionBinding_Experiment,2024.2.1,80.31990841212867,2024-11-13 13h46.36.262430 +0530,
0.7,1000,exp,60,0,5,space,0.40309120399615495,None,425,1,[1.9627368110013776],[1.9627493209991371],5,0,60,11,259.69319160300074,,259.677612710002,259.69319160300074,260.6747566129998,260.6747566129998,260.69187812999735,261.0839235309977,space,0.40309120399615495,None,261.08444634100306,261.79134698366784,262.0973697779991,262.0782610449969,262.07905177099747,262.0973697779991,262.0973697779991,262.0973697779991,264.061264472999,425,1,[1.9627368110013776],[1.9627493209991371],992430,001,2024-11-13_13h46.00.122,IntentionBinding_Experiment,2024.2.1,80.31990841212867,2024-11-13 13h46.36.262430 +0530,
0.4,1000,exp,61,1,5,space,0.385523145996558,None,764,1,[1.475021721002122],[1.4750318200021866],5,1,61,10,264.07623247599986,,264.0615944730016,264.07623247599986,265.0583871869967,265.0583871869967,265.0746777929962,265.4590963369992,space,0.385523145996558,None,265.45978544100217,265.8582906316699,266.16168311599904,266.1450712750011,266.1457935340004,266.16168311599904,266.16168311599904,266.16168311599904,267.63802867900085,764,1,[1.475021721002122],[1.4750318200021866],992430,001,2024-11-13_13h46.00.122,IntentionBinding_Experiment,2024.2.1,80.31990841212867,2024-11-13 13h46.36.262430 +0530,
0.1,1000,exp,62,2,5,space,0.6261765840026783,None,435,1,[1.9806673119965126],[1.9806791779992636],5,2,62,6,267.6460625480031,,267.6384367799983,267.6460625480031,268.63106627100206,268.63106627100206,268.6415762120014,269.26089572800265,space,0.6261765840026783,None,269.2614418930025,269.36649217266336,269.6680903160013,269.6519373810006,269.65268775099685,269.6680903160013,269.6680903160013,269.6680903160013,271.6498478979993,435,1,[1.9806673119965126],[1.9806791779992636],992430,001,2024-11-13_13h46.00.122,IntentionBinding_Experiment,2024.2.1,80.31990841212867,2024-11-13 13h46.36.262430 +0530,
0.7,400,unexp,63,3,5,space,0.7923578119953163,None,252,1,[2.4495774250026443],[2.4495923730064533],5,3,63,2,271.6584481059981,,271.6500996190007,271.6584481059981,272.64832165199914,272.64832165199914,272.64832165199914,273.4464632759991,space,0.7923578119953163,None,273.44728146200214,274.14709410366436,274.4532895680022,274.43404906999785,274.4347309730001,274.4532895680022,274.4532895680022,274.4532895680022,276.9041767539966,252,1,[2.4495774250026443],[2.4495923730064533],992430,001,2024-11-13_13h46.00.122,IntentionBinding_Experiment,2024.2.1,80.31990841212867,2024-11-13 13h46.36.262430 +0530,
0.7,1000,exp,64,4,5,space,0.38358316799713066,None,134,1,[2.161951483998564],[2.1619634609960485],5,4,64,8,276.91128385299817,,276.904448786001,276.91128385299817,277.8986642500022,277.8986642500022,277.908212139002,278.2932765950027,space,0.38358316799713066,None,278.29382052899746,278.9970927766665,279.3012453470001,279.2837616980032,279.2844769239964,279.3012453470001,279.3012453470001,279.3012453470001,281.4643970160032,134,1,[2.161951483998564],[2.1619634609960485],992430,001,2024-11-13_13h46.00.122,IntentionBinding_Experiment,2024.2.1,80.31990841212867,2024-11-13 13h46.36.262430 +0530,
0.4,1000,exp,65,5,5,space,0.8060954690008657,None,142 ,1,[2.4867380630021216],[2.4867475450009806],5,5,65,4,281.4709237319985,,281.4646590869961,281.4709237319985,282.4580006640026,282.4580006640026,282.46468841000024,283.27999272300076,space,0.8060954690008657,None,283.2805740940021,283.6832657656671,283.99243966799986,283.9775766829989,283.97831708099693,283.99243966799986,283.99243966799986,283.99243966799986,286.48012849200313,142 ,1,[2.4867380630021216],[2.4867475450009806],992430,001,2024-11-13_13h46.00.122,IntentionBinding_Experiment,2024.2.1,80.31990841212867,2024-11-13 13h46.36.262430 +0530,
0.1,1000,exp,66,6,5,space,0.7239162880068761,None,425,1,[1.5818150720006088],[1.5818382759971428],5,6,66,3,286.48656390499673,,286.4803769179998,286.48656390499673,287.47440128600283,287.47440128600283,287.4808394520005,288.20208623899816,space,0.7239162880068761,None,288.2026156819993,288.30816899966544,288.6108093639996,288.5945652340015,288.5953068730014,288.6108093639996,288.6108093639996,288.6108093639996,290.1943404220001,425,1,[1.5818150720006088],[1.5818382759971428],992430,001,2024-11-13_13h46.00.122,IntentionBinding_Experiment,2024.2.1,80.31990841212867,2024-11-13 13h46.36.262430 +0530,
0.1,1000,exp,67,7,5,space,2.016615874999843,None,632,1,[1.7056633440006408],[1.7056802900042385],5,7,67,9,290.201355090001,,290.1946299150004,290.201355090001,291.19171836999885,291.19171836999885,291.200215648998,293.2103162249987,space,2.016615874999843,None,293.21086639699934,293.3154309966669,293.61791634900146,293.60161466299905,293.60233107100066,293.61791634900146,293.61791634900146,293.61791634900146,295.32490150599915,632,1,[1.7056633440006408],[1.7056802900042385],992430,001,2024-11-13_13h46.00.122,IntentionBinding_Experiment,2024.2.1,80.31990841212867,2024-11-13 13h46.36.262430 +0530,
0.7,1000,exp,68,8,5,space,0.8324438560011913,None,74,1,[1.790339289997064],[1.7903588429981028],5,8,68,5,295.331169901001,,295.3251378299974,295.331169901001,296.3141262749996,296.3141262749996,296.3244025169988,297.15168025300227,space,0.8324438560011913,None,297.15226082799927,297.85916364266836,298.16838904500037,298.1511716469977,298.1518843899976,298.16838904500037,298.16838904500037,298.16838904500037,299.96024634600326,74,1,[1.790339289997064],[1.7903588429981028],992430,001,2024-11-13_13h46.00.122,IntentionBinding_Experiment,2024.2.1,80.31990841212867,2024-11-13 13h46.36.262430 +0530,
0.4,400,unexp,69,9,5,space,0.48298752499977127,None,524,1,[1.8662302950033336],[1.866252687999804],5,9,69,1,299.9668344390011,,299.9605101909983,299.9668344390011,300.9590692790007,300.9590692790007,300.9590692790007,301.45105226199667,space,0.48298752499977127,None,301.4516006720005,301.8578903136697,302.1612118129997,302.1447768739963,302.1455083030014,302.1612118129997,302.1612118129997,302.1612118129997,304.02902459399775,524,1,[1.8662302950033336],[1.866252687999804],992430,001,2024-11-13_13h46.00.122,IntentionBinding_Experiment,2024.2.1,80.31990841212867,2024-11-13 13h46.36.262430 +0530,
0.4,1000,exp,70,10,5,space,0.4259789930001716,None,364,1,[2.76340229500056],[2.7634123739990173],5,10,70,7,304.03634703699936,,304.029294218999,304.03634703699936,305.02447049700277,305.02447049700277,305.03104568600247,305.4606799749963,space,0.4259789930001716,None,305.4612677740006,305.8643727866695,306.16816737000045,306.1512156589961,306.1519592780023,306.16816737000045,306.16816737000045,306.16816737000045,308.93265617299767,364,1,[2.76340229500056],[2.7634123739990173],992430,001,2024-11-13_13h46.00.122,IntentionBinding_Experiment,2024.2.1,80.31990841212867,2024-11-13 13h46.36.262430 +0530,
0.1,400,unexp,71,11,5,space,0.9035523070051568,None,632,1,[1.8306586430044263],[1.8306695319988648],5,11,71,0,308.94142424099846,,308.93290759999945,308.94142424099846,309.9302676879961,309.9302676879961,309.9302676879961,310.84323514100106,space,0.9035523070051568,None,310.8438641679968,310.9466028486679,311.2513788799988,311.23342506500194,311.2341390959991,311.2513788799988,311.2513788799988,311.2513788799988,313.0830835230008,632,1,[1.8306586430044263],[1.8306695319988648],992430,001,2024-11-13_13h46.00.122,IntentionBinding_Experiment,2024.2.1,80.31990841212867,2024-11-13 13h46.36.262430 +0530,
0.7,400,unexp,72,0,6,space,0.4197404229998938,None,134,1,[1.561280138004804],[1.5612921200008714],6,0,72,2,313.0914437839965,,313.08332079200045,313.0914437839965,314.0814395839989,314.0814395839989,314.0814395839989,314.5097454209972,space,0.4197404229998938,None,314.51033556400216,315.2146963066664,315.5184521139963,315.5017566230017,315.50268546799634,315.5184521139963,315.5184521139963,315.5184521139963,317.0808628529994,134,1,[1.561280138004804],[1.5612921200008714],992430,001,2024-11-13_13h46.00.122,IntentionBinding_Experiment,2024.2.1,80.31990841212867,2024-11-13 13h46.36.262430 +0530,
0.4,1000,exp,73,1,6,space,0.6260303429953638,None,532,1,[2.210222725996573],[2.2102343410006142],6,1,73,4,317.08732210699964,,317.0811125649998,317.08732210699964,318.07397664499877,318.07397664499877,318.08035937899695,318.7097184539962,space,0.6260303429953638,None,318.7102665679995,319.1138081996653,319.4174258869971,319.40111502900254,319.4018746849979,319.4174258869971,319.4174258869971,319.4174258869971,321.6286393440023,532,1,[2.210222725996573],[2.2102343410006142],992430,001,2024-11-13_13h46.00.122,IntentionBinding_Experiment,2024.2.1,80.31990841212867,2024-11-13 13h46.36.262430 +0530,
0.4,1000,exp,74,2,6,space,0.9110254839979461,None,246,1,[1.833111032996385],[1.8331219949977822],6,2,74,10,321.6346153630002,,321.6288716709969,321.6346153630002,322.6240585589985,322.6240585589985,322.6308157270032,323.5433611760018,space,0.9110254839979461,None,323.5439592179973,323.94648913066726,324.25308240299637,324.233417919997,324.23410819599667,324.25308240299637,324.25308240299637,324.25308240299637,326.08771259999776,246,1,[1.833111032996385],[1.8331219949977822],992430,001,2024-11-13_13h46.00.122,IntentionBinding_Experiment,2024.2.1,80.31990841212867,2024-11-13 13h46.36.262430 +0530,
0.1,1000,exp,75,3,6,space,0.43624873900262173,None,632,1,[2.932531086000381],[2.932547782002075],6,3,75,3,326.09583234399906,,326.0882531489988,326.09583234399906,327.0805503629963,327.0805503629963,327.0909886619993,327.52558406099706,space,0.43624873900262173,None,327.52610727700085,327.62469613266535,327.92564535699785,327.9109172410026,327.9115995980028,327.92564535699785,327.92564535699785,327.92564535699785,330.85957320000307,632,1,[2.932531086000381],[2.932547782002075],992430,001,2024-11-13_13h46.00.122,IntentionBinding_Experiment,2024.2.1,80.31990841212867,2024-11-13 13h46.36.262430 +0530,
0.1,400,unexp,76,4,6,space,0.46191598899895325,None,532,1,[1.7181025589961791],[1.7181164989960962],6,4,76,0,330.86575850199733,,330.85981738199916,330.86575850199733,331.85766606200195,331.85766606200195,331.8643199049984,332.3258927639981,space,0.46191598899895325,None,332.32643047299644,332.4298579456629,332.73277399400104,332.7174573049997,332.7181564429993,332.73277399400104,332.73277399400104,332.73277399400104,334.45231642600265,532,1,[1.7181025589961791],[1.7181164989960962],992430,001,2024-11-13_13h46.00.122,IntentionBinding_Experiment,2024.2.1,80.31990841212867,2024-11-13 13h46.36.262430 +0530,
0.7,1000,exp,77,5,6,space,0.4101752380011021,None,768,1,[1.7297188330048812],[1.729731384999468],6,5,77,11,334.4718391770002,,334.45263011800125,334.4718391770002,335.4475120490024,335.4475120490024,335.464027643,335.86032042199804,space,0.4101752380011021,None,335.8608830539961,336.5637830976668,336.8674587100031,336.85120421800093,336.85192878999806,336.8674587100031,336.8674587100031,336.8674587100031,338.5984962340008,768,1,[1.7297188330048812],[1.729731384999468],992430,001,2024-11-13_13h46.00.122,IntentionBinding_Experiment,2024.2.1,80.31990841212867,2024-11-13 13h46.36.262430 +0530,
0.4,1000,exp,78,6,6,space,0.3349723270002869,None,657,1,[1.778351394998026],[1.7783621249982389],6,6,78,7,338.60769801699644,,338.5987473720015,338.60769801699644,339.597211772998,339.597211772998,339.597211772998,339.9428755580011,space,0.3349723270002869,None,339.9434188660016,340.346276850669,340.65056665500015,340.63308875000075,340.63376938500005,340.65056665500015,340.65056665500015,340.65056665500015,342.43023611600074,657,1,[1.778351394998026],[1.7783621249982389],992430,001,2024-11-13_13h46.00.122,IntentionBinding_Experiment,2024.2.1,80.31990841212867,2024-11-13 13h46.36.262430 +0530,
0.7,1000,exp,79,7,6,space,0.32904957300343085,None,478,1,[2.024028369000007],[2.024039232994255],6,7,79,8,342.43636744099786,,342.43048338800145,342.43636744099786,343.4238929319981,343.4238929319981,343.43032973299705,343.7597220280004,space,0.32904957300343085,None,343.76034011499723,344.4635045176658,344.773483500001,344.75267494299624,344.7539770759977,344.773483500001,344.773483500001,344.773483500001,346.79872872099804,478,1,[2.024028369000007],[2.024039232994255],992430,001,2024-11-13_13h46.00.122,IntentionBinding_Experiment,2024.2.1,80.31990841212867,2024-11-13 13h46.36.262430 +0530,
0.1,1000,exp,80,8,6,space,0.4129908510003588,None,876,1,[2.9443399449955905],[2.944351613994513],6,8,80,9,346.8074399190009,,346.7989788979976,346.8074399190009,347.7975049460001,347.7975049460001,347.7975049460001,348.21643734900135,space,0.4129908510003588,None,348.2169689270013,348.32394148266417,348.6254282040027,348.6109501230021,348.6116795459966,348.6254282040027,348.6254282040027,348.6254282040027,351.5712051189985,876,1,[2.9443399449955905],[2.944351613994513],992430,001,2024-11-13_13h46.00.122,IntentionBinding_Experiment,2024.2.1,80.31990841212867,2024-11-13 13h46.36.262430 +0530,
0.1,1000,exp,81,9,6,space,0.2894803539966233,None,178,1,[2.161363605999213],[2.1613813010044396],6,9,81,6,351.5777065529983,,351.57169471700036,351.5777065529983,352.5637412299984,352.5637412299984,352.5735731129971,352.8610719339995,space,0.2894803539966233,None,352.861618515999,352.96466248866295,353.27671222900244,353.2605794330011,353.26135624600283,353.27671222900244,353.27671222900244,353.27671222900244,355.4399369110033,178,1,[2.161363605999213],[2.1613813010044396],992430,001,2024-11-13_13h46.00.122,IntentionBinding_Experiment,2024.2.1,80.31990841212867,2024-11-13 13h46.36.262430 +0530,
0.4,400,unexp,82,10,6,space,0.4279547449987149,None,642,1,[1.794503777004138],[1.7945189099991694],6,10,82,1,355.44703484600177,,355.4402044660019,355.44703484600177,356.42981332899944,356.42981332899944,356.4406578240014,356.8598932169989,space,0.4279547449987149,None,356.8604567549992,357.2645238446678,357.5671461840029,357.55063641000015,357.5513346410007,357.5671461840029,357.5671461840029,357.5671461840029,359.36273641900334,642,1,[1.794503777004138],[1.7945189099991694],992430,001,2024-11-13_13h46.00.122,IntentionBinding_Experiment,2024.2.1,80.31990841212867,2024-11-13 13h46.36.262430 +0530,
0.7,1000,exp,83,11,6,space,0.5329098029978923,None,743,1,[1.0824115579962381],[1.0824224329990102],6,11,83,5,359.36898092400224,,359.3629868220014,359.36898092400224,360.35754087199894,360.35754087199894,360.36458512800164,360.8939794179969,space,0.5329098029978923,None,360.8945400379962,361.59604952866744,361.9036663079969,361.8843442419966,361.8898585979987,361.9036663079969,361.9036663079969,361.9036663079969,362.98729638000077,743,1,[1.0824115579962381],[1.0824224329990102],992430,001,2024-11-13_13h46.00.122,IntentionBinding_Experiment,2024.2.1,80.31990841212867,2024-11-13 13h46.36.262430 +0530,
0.1,1000,exp,84,0,7,space,0.4504665499989642,None,131,1,[2.2071425469985115],[2.207152999995742],7,0,84,9,362.9944539930002,,362.9876717329971,362.9944539930002,363.9799979570016,363.9799979570016,363.9917723499966,364.4328284509975,space,0.4504665499989642,None,364.4334103529982,364.54030908666414,364.8434324339978,364.82695255799626,364.8276550090013,364.8434324339978,364.8434324339978,364.8434324339978,367.0517732799999,131,1,[2.2071425469985115],[2.207152999995742],992430,001,2024-11-13_13h46.00.122,IntentionBinding_Experiment,2024.2.1,80.31990841212867,2024-11-13 13h46.36.262430 +0530,
0.4,1000,exp,85,1,7,space,2.6351701759995194,None,341,1,[2.362845865005511],[2.3628569720021915],7,1,85,7,367.0605530199973,,367.05208058300195,367.0605530199973,368.0475490329991,368.0475490329991,368.05706672299857,370.69180031699943,space,2.6351701759995194,None,370.69237485600024,371.09606994166484,371.4006059039966,371.3824955029995,371.3831959820018,371.4006059039966,371.4006059039966,371.4006059039966,373.76457002799725,341,1,[2.362845865005511],[2.3628569720021915],992430,001,2024-11-13_13h46.00.122,IntentionBinding_Experiment,2024.2.1,80.31990841212867,2024-11-13 13h46.36.262430 +0530,
0.7,400,unexp,86,2,7,space,1.1919686599940178,None,456,1,[1.2820059899968328],[1.2820277680002619],7,2,86,2,373.77329410499806,,373.76482746099646,373.77329410499806,374.76362407200213,374.76362407200213,374.76362407200213,375.9592757240025,space,1.1919686599940178,None,375.9598473169972,376.6631488316673,376.96676327099703,376.94981923900195,376.95053688700136,376.96676327099703,376.96676327099703,376.96676327099703,378.25013174500054,456,1,[1.2820059899968328],[1.2820277680002619],992430,001,2024-11-13_13h46.00.122,IntentionBinding_Experiment,2024.2.1,80.31990841212867,2024-11-13 13h46.36.262430 +0530,
0.7,1000,exp,87,3,7,space,1.0895919969989336,None,542,1,[1.5243165950014372],[1.5243270200007828],7,3,87,11,378.2588582660028,,378.25037576699833,378.2588582660028,379.2492154080028,379.2492154080028,379.2492154080028,380.34294266699726,space,1.0895919969989336,None,380.3436434469986,381.0460655566678,381.3501844249986,381.33257896800205,381.3333469979989,381.3501844249986,381.3501844249986,381.3501844249986,382.8755587179985,542,1,[1.5243165950014372],[1.5243270200007828],992430,001,2024-11-13_13h46.00.122,IntentionBinding_Experiment,2024.2.1,80.31990841212867,2024-11-13 13h46.36.262430 +0530,
0.1,1000,exp,88,4,7,space,1.2840233240058296,None,542,1,[1.8547632260015234],[1.8547735950050992],7,4,88,3,382.89132984499884,,382.87579908000043,382.89132984499884,383.87377409799956,383.87377409799956,383.8808469700016,385.16695453599823,space,1.2840233240058296,None,385.16758571800165,385.27376529866547,385.5752656600016,385.56020145399816,385.5609248300025,385.5752656600016,385.5752656600016,385.5752656600016,387.4309880919973,542,1,[1.8547632260015234],[1.8547735950050992],992430,001,2024-11-13_13h46.00.122,IntentionBinding_Experiment,2024.2.1,80.31990841212867,2024-11-13 13h46.36.262430 +0530,
0.1,1000,exp,89,5,7,space,0.47986938300164184,None,135 ,1,[3.6820228380020126],[3.6820391490036855],7,5,89,6,387.4399678159971,,387.43125364599837,387.4399678159971,388.42930198799877,388.42930198799877,388.42930198799877,388.9158431629985,space,0.47986938300164184,None,388.9164114689993,389.0233689646668,389.3253274710005,389.31005199399806,389.31079264599975,389.3253274710005,389.3253274710005,389.3253274710005,393.0087663230006,135 ,1,[3.6820228380020126],[3.6820391490036855],992430,001,2024-11-13_13h46.00.122,IntentionBinding_Experiment,2024.2.1,80.31990841212867,2024-11-13 13h46.36.262430 +0530,
0.7,1000,exp,90,6,7,space,0.3124342030059779,None,56,1,[1.6808459460007725],[1.680856382001366],7,6,90,5,393.0153974319983,,393.00902305899945,393.0153974319983,394.00674713999615,394.00674713999615,394.01330072899873,394.3251202899992,space,0.3124342030059779,None,394.3256832429979,395.02928920066574,395.3334844139972,395.31595340400236,395.31666795999627,395.3334844139972,395.3334844139972,395.3334844139972,397.0153021549995,56,1,[1.6808459460007725],[1.680856382001366],992430,001,2024-11-13_13h46.00.122,IntentionBinding_Experiment,2024.2.1,80.31990841212867,2024-11-13 13h46.36.262430 +0530,
0.4,400,unexp,91,7,7,space,0.48568600900034653,None,143,1,[1.9192879539987189],[1.9192995359990164],7,7,91,1,397.0238108409976,,397.0155357170006,397.0238108409976,398.01289979099965,398.01289979099965,398.01289979099965,398.50810774599813,space,0.48568600900034653,None,398.5086498189994,398.9130590586685,399.21679924899945,399.1994028670015,399.2001430730015,399.21679924899945,399.21679924899945,399.21679924899945,401.1377754580026,143,1,[1.9192879539987189],[1.9192995359990164],992430,001,2024-11-13_13h46.00.122,IntentionBinding_Experiment,2024.2.1,80.31990841212867,2024-11-13 13h46.36.262430 +0530,
0.1,400,unexp,92,8,7,space,0.6160391430021264,None,321,1,[2.4036719990035635],[2.4036816230000113],7,8,92,0,401.1448151209988,,401.13815665499715,401.1448151209988,402.1295227770024,402.1295227770024,402.1397175989987,402.7492396789967,space,0.6160391430021264,None,402.7498756990026,402.85638008466435,403.1588916909968,403.1429021770018,403.14361576100055,403.1588916909968,403.1588916909968,403.1588916909968,405.5635544539982,321,1,[2.4036719990035635],[2.4036816230000113],992430,001,2024-11-13_13h46.00.122,IntentionBinding_Experiment,2024.2.1,80.31990841212867,2024-11-13 13h46.36.262430 +0530,
0.4,1000,exp,93,9,7,space,0.5332134470008896,None,532,1,[1.6009274790048948],[1.6009373100023367],7,9,93,10,405.57282543300244,,405.563805537,405.57282543300244,406.55764558300143,406.55764558300143,406.56422182499955,407.0933731010009,space,0.5332134470008896,None,407.0939408100021,407.49633414766527,407.7998251169993,407.7830419050006,407.78375548299664,407.7998251169993,407.7998251169993,407.7998251169993,409.40194337400317,532,1,[1.6009274790048948],[1.6009373100023367],992430,001,2024-11-13_13h46.00.122,IntentionBinding_Experiment,2024.2.1,80.31990841212867,2024-11-13 13h46.36.262430 +0530,
0.7,1000,exp,94,10,7,space,0.4428833349957131,None,33,1,[2.117360787000507],[2.1173713129974203],7,10,94,8,409.4091532509992,,409.4024268560024,409.4091532509992,410.39736000700213,410.39736000700213,410.40700690599624,410.84243736699864,space,0.4428833349957131,None,410.84313368400035,411.5451783836654,411.84815677499864,411.8320136199982,411.8327698360008,411.84815677499864,411.84815677499864,411.84815677499864,413.96643790099915,33,1,[2.117360787000507],[2.1173713129974203],992430,001,2024-11-13_13h46.00.122,IntentionBinding_Experiment,2024.2.1,80.31990841212867,2024-11-13 13h46.36.262430 +0530,
0.4,1000,exp,95,11,7,space,0.8530506579991197,None,32,1,[2.9595175470021786],[2.959528522005712],7,11,95,4,413.9739174060014,,413.96666689599806,413.9739174060014,414.9625762470023,414.9625762470023,414.97234318799747,415.82584785400104,space,0.8530506579991197,None,415.82648192899796,416.22893851266804,416.5380410419966,416.52319973400154,416.523975848002,416.5380410419966,416.5380410419966,416.5380410419966,419.49859548600216,32,1,[2.9595175470021786],[2.959528522005712],992430,001,2024-11-13_13h46.00.122,IntentionBinding_Experiment,2024.2.1,80.31990841212867,2024-11-13 13h46.36.262430 +0530,
0.1,1000,exp,96,0,8,space,0.700224371998047,None,123,1,[4.15997161300038],[4.15998160399613],8,0,96,6,419.50700074499764,,419.4988338339972,419.50700074499764,420.50704100800067,420.50704100800067,420.50704100800067,421.2159610469971,space,0.700224371998047,None,421.21660128599615,421.3241129276687,421.65768581000157,421.6431777780017,421.6439493979997,421.65768581000157,421.65768581000157,421.65768581000157,425.8188228729996,123,1,[4.15997161300038],[4.15998160399613],992430,001,2024-11-13_13h46.00.122,IntentionBinding_Experiment,2024.2.1,80.31990841212867,2024-11-13 13h46.36.262430 +0530,
0.7,400,unexp,97,1,8,space,0.867568792993552,None,523,1,[1.7511736420055968],[1.751188597001601],8,1,97,2,425.8259669320032,,425.8191906159991,425.8259669320032,426.8125857240011,426.8125857240011,426.82278206999763,427.69551814100123,space,0.867568792993552,None,427.696117694999,428.39512173866774,428.6988912680026,428.68178729800275,428.6824767569997,428.6988912680026,428.6988912680026,428.6988912680026,430.4512107870032,523,1,[1.7511736420055968],[1.751188597001601],992430,001,2024-11-13_13h46.00.122,IntentionBinding_Experiment,2024.2.1,80.31990841212867,2024-11-13 13h46.36.262430 +0530,
0.7,1000,exp,98,2,8,space,1.0309067519992823,None,632,1,[2.1055976720017497],[2.105615309003042],8,2,98,5,430.45960729000217,,430.4514773569972,430.45960729000217,431.4458726809971,431.4458726809971,431.4565065729985,432.4815192850001,space,1.0309067519992823,None,432.48207186900254,433.1891267056674,433.4917365299989,433.4757836889985,433.4765114729962,433.4917365299989,433.4917365299989,433.4917365299989,435.59890999300114,632,1,[2.1055976720017497],[2.105615309003042],992430,001,2024-11-13_13h46.00.122,IntentionBinding_Experiment,2024.2.1,80.31990841212867,2024-11-13 13h46.36.262430 +0530,
0.4,1000,exp,99,3,8,space,0.9893654519983102,None,167,1,[2.565169922003406],[2.5651799330007634],8,3,99,10,435.60754447100044,,435.59917444000166,435.60754447100044,436.5960455099994,436.5960455099994,436.6064379579984,437.59111183299683,space,0.9893654519983102,None,437.59165472000313,437.99476067666933,438.30155331100104,438.2828035720013,438.28348604500206,438.30155331100104,438.30155331100104,438.30155331100104,440.86778528399736,167,1,[2.565169922003406],[2.5651799330007634],992430,001,2024-11-13_13h46.00.122,IntentionBinding_Experiment,2024.2.1,80.31990841212867,2024-11-13 13h46.36.262430 +0530,
0.4,1000,exp,100,4,8,space,0.11178615099925082,None,863,1,[2.588701148997643],[2.5887119129984058],8,4,100,7,440.8758041539986,,440.8680430789973,440.8758041539986,441.86286028799805,441.86286028799805,441.87243732500065,441.9812353219968,space,0.11178615099925082,None,441.98176877600054,442.3890504696649,442.6906804679966,442.6757853070012,442.6764944259994,442.6906804679966,442.6906804679966,442.6906804679966,445.28035763200023,863,1,[2.588701148997643],[2.5887119129984058],992430,001,2024-11-13_13h46.00.122,IntentionBinding_Experiment,2024.2.1,80.31990841212867,2024-11-13 13h46.36.262430 +0530,
0.1,1000,exp,101,5,8,space,1.04853074499988,None,178,1,[2.6926582329979283],[2.6926679009993677],8,5,101,3,445.2894331790012,,445.28060102900054,445.2894331790012,446.28018608099956,446.28018608099956,446.28018608099956,447.33132166099676,space,1.04853074499988,None,447.3318872449963,447.4389275026663,447.7403906899999,447.7255051329994,447.7261922760008,447.7403906899999,447.7403906899999,447.7403906899999,450.43421312199644,178,1,[2.6926582329979283],[2.6926679009993677],992430,001,2024-11-13_13h46.00.122,IntentionBinding_Experiment,2024.2.1,80.31990841212867,2024-11-13 13h46.36.262430 +0530,
0.4,400,unexp,102,6,8,space,0.6481594009965193,None,864,1,[2.694478383004025],[2.694489645997237],8,6,102,1,450.4426985050013,,450.4344649010018,450.4426985050013,451.42871994600137,451.42871994600137,451.4388945019964,452.0812306919979,space,0.6481594009965193,None,452.0818237830026,452.4888980316648,452.7955257040012,452.777151702001,452.77790236200235,452.7955257040012,452.7955257040012,452.7955257040012,455.4910775239987,864,1,[2.694478383004025],[2.694489645997237],992430,001,2024-11-13_13h46.00.122,IntentionBinding_Experiment,2024.2.1,80.31990841212867,2024-11-13 13h46.36.262430 +0530,
0.4,1000,exp,103,7,8,space,0.7678657240030589,None,642,1,[2.5833485499970266],[2.5833593029965414],8,7,103,4,455.5068737749971,,455.49133345599694,455.5068737749971,456.48890011599724,456.48890011599724,456.50593190200016,457.2588960819994,space,0.7678657240030589,None,457.25960294499964,457.6629318076632,457.97409240400157,457.9592705879986,457.9599579279966,457.97409240400157,457.97409240400157,457.97409240400157,460.55841810900165,642,1,[2.5833485499970266],[2.5833593029965414],992430,001,2024-11-13_13h46.00.122,IntentionBinding_Experiment,2024.2.1,80.31990841212867,2024-11-13 13h46.36.262430 +0530,
0.7,1000,exp,104,8,8,space,0.7442477049989975,None,765,1,[1.68841928600159],[1.6884385890007252],8,8,104,8,460.5736551290029,,460.55866878300003,460.5736551290029,461.5559953100019,461.5559953100019,461.5627716279996,462.3080639969994,space,0.7442477049989975,None,462.30859656100074,463.01219448066354,463.3157598370017,463.2986819439975,463.2994009920003,463.3157598370017,463.3157598370017,463.3157598370017,465.0054004459962,765,1,[1.68841928600159],[1.6884385890007252],992430,001,2024-11-13_13h46.00.122,IntentionBinding_Experiment,2024.2.1,80.31990841212867,2024-11-13 13h46.36.262430 +0530,
0.1,400,unexp,105,9,8,space,0.4355882199961343,None,345,1,[2.3798541409996687],[2.3798657999941497],8,9,105,0,465.01165988999855,,465.0056559090008,465.01165988999855,465.99547208799777,465.99547208799777,466.00580172899936,466.44036569799937,space,0.4355882199961343,None,466.44092797300254,466.54462238466317,466.8549552600016,466.83325550299924,466.8340269379987,466.8549552600016,466.8549552600016,466.8549552600016,469.23656838700117,345,1,[2.3798541409996687],[2.3798657999941497],992430,001,2024-11-13_13h46.00.122,IntentionBinding_Experiment,2024.2.1,80.31990841212867,2024-11-13 13h46.36.262430 +0530,
0.1,1000,exp,106,10,8,space,1.1541774710058235,None,234,1,[1.7503549110042513],[1.7503751520052901],8,10,106,9,469.24330912099686,,469.23693512599857,469.24330912099686,470.2282483750023,470.2282483750023,470.2385994549986,471.3915507279962,space,1.1541774710058235,None,471.39216832799866,471.4958773936635,471.803599699997,471.7825832210001,471.7833369439977,471.803599699997,471.803599699997,471.803599699997,473.5554335220004,234,1,[1.7503549110042513],[1.7503751520052901],992430,001,2024-11-13_13h46.00.122,IntentionBinding_Experiment,2024.2.1,80.31990841212867,2024-11-13 13h46.36.262430 +0530,
0.7,1000,exp,107,11,8,space,1.0853724580010748,None,11,1,[1.3701069129965617],[1.3701187309998204],8,11,107,11,473.5617476760017,,473.5556913249966,473.5617476760017,474.545350047003,474.545350047003,474.55556077099754,475.6406328890007,space,1.0853724580010748,None,475.6411776169989,476.3443601796646,476.64882511599717,476.6312337229974,476.6318988799976,476.64882511599717,476.64882511599717,476.64882511599717,478.0206921040008,11,1,[1.3701069129965617],[1.3701187309998204],992430,001,2024-11-13_13h46.00.122,IntentionBinding_Experiment,2024.2.1,80.31990841212867,2024-11-13 13h46.36.262430 +0530,
0.1,1000,exp,108,0,9,space,0.5712542120018043,None,22,1,[1.2100201590001234],[1.2100345159997232],9,0,108,3,478.0270854859991,,478.0209448020032,478.0270854859991,479.0121271429962,479.0121271429962,479.02183949400205,479.5906498289987,space,0.5712542120018043,None,479.5911934579999,479.69609015566334,480.0090586369988,479.9931958369998,479.99395801100036,480.0090586369988,480.0090586369988,480.0090586369988,481.22080173099675,22,1,[1.2100201590001234],[1.2100345159997232],992430,001,2024-11-13_13h46.00.122,IntentionBinding_Experiment,2024.2.1,80.31990841212867,2024-11-13 13h46.36.262430 +0530,
0.7,1000,exp,109,1,9,space,0.26354660899960436,None,44,1,[1.2102302790008252],[1.2102425940029207],9,1,109,11,481.2270861319994,,481.22106944199913,481.2270861319994,482.2119241429973,482.2119241429973,482.22183669899823,482.48084971799835,space,0.26354660899960436,None,482.4813874899992,483.1885319786636,483.4915035640006,483.47655010600283,483.4772473999983,483.4915035640006,483.4915035640006,483.4915035640006,484.7036435580012,44,1,[1.2102302790008252],[1.2102425940029207],992430,001,2024-11-13_13h46.00.122,IntentionBinding_Experiment,2024.2.1,80.31990841212867,2024-11-13 13h46.36.262430 +0530,
0.1,1000,exp,110,2,9,space,1.0810560180034372,None,54,1,[1.7335709699982544],[1.733582127999398],9,2,110,6,484.7101404740024,,484.7038985170002,484.7101404740024,485.6951042349974,485.6951042349974,485.70569241799967,486.7808453580001,space,1.0810560180034372,None,486.7814392450018,486.88944580766497,487.1955915619983,487.17636488199787,487.1772423779985,487.1955915619983,487.1955915619983,487.1955915619983,488.9301588849994,54,1,[1.7335709699982544],[1.733582127999398],992430,001,2024-11-13_13h46.00.122,IntentionBinding_Experiment,2024.2.1,80.31990841212867,2024-11-13 13h46.36.262430 +0530,
0.7,1000,exp,111,3,9,space,0.2516680390035617,None,65,1,[0.985312974997214],[0.9853249879961368],9,3,111,5,488.9386364050006,,488.9304071869992,488.9386364050006,489.9279109039999,489.9279109039999,489.9279109039999,490.1905218660031,space,0.2516680390035617,None,490.19105658999615,490.89459584266683,491.1989522849981,491.1810977490022,491.1817824030004,491.1989522849981,491.1989522849981,491.1989522849981,492.185558019999,65,1,[0.985312974997214],[0.9853249879961368],992430,001,2024-11-13_13h46.00.122,IntentionBinding_Experiment,2024.2.1,80.31990841212867,2024-11-13 13h46.36.262430 +0530,
0.7,400,unexp,112,4,9,space,0.35987550400022883,None,76,1,[1.050567250000313],[1.0505775359997642],9,4,112,2,492.1932501179981,,492.18603797299875,492.1932501179981,493.1780352979986,493.1780352979986,493.18828026799747,493.5418067729988,space,0.35987550400022883,None,493.5424809199976,494.24397408666505,494.549009205999,494.53110303099675,494.5317872239975,494.549009205999,494.549009205999,494.549009205999,495.60069129399926,76,1,[1.050567250000313],[1.0505775359997642],992430,001,2024-11-13_13h46.00.122,IntentionBinding_Experiment,2024.2.1,80.31990841212867,2024-11-13 13h46.36.262430 +0530,
0.1,1000,exp,113,5,9,space,0.2811793140062946,None,64,1,[1.6396091200003866],[1.6396240940011921],9,5,113,9,495.60812600600184,,495.6010912019992,495.60812600600184,496.59545650899963,496.59545650899963,496.60537702400325,496.8807322240027,space,0.2811793140062946,None,496.8812709319973,496.9884298516665,497.293100091003,497.2752204580029,497.27590100999805,497.293100091003,497.293100091003,497.293100091003,498.93376936799905,64,1,[1.6396091200003866],[1.6396240940011921],992430,001,2024-11-13_13h46.00.122,IntentionBinding_Experiment,2024.2.1,80.31990841212867,2024-11-13 13h46.36.262430 +0530,
0.4,400,unexp,114,6,9,space,0.3831744489943958,None,26,1,[2.0985191439976916],[2.0985288849988137],9,6,114,1,498.9411308769995,,498.93406171099923,498.9411308769995,499.9279947030009,499.9279947030009,499.93836534,500.3141090029967,space,0.3831744489943958,None,500.3146928599963,500.721828832666,501.025411249997,501.0094780060026,501.0103375510007,501.025411249997,501.025411249997,501.025411249997,503.12496687300154,26,1,[2.0985191439976916],[2.0985288849988137],992430,001,2024-11-13_13h46.00.122,IntentionBinding_Experiment,2024.2.1,80.31990841212867,2024-11-13 13h46.36.262430 +0530,
0.4,1000,exp,115,7,9,space,0.3679201729974011,None,75,1,[1.2624303180054994],[1.262447842003894],9,7,115,10,503.13131311599864,,503.1252154920003,503.13131311599864,504.12166140499903,504.12166140499903,504.128464387999,504.49804174699966,space,0.3679201729974011,None,504.49860961500235,504.9051054456688,505.2079353719964,505.1914690600024,505.19217830900016,505.2079353719964,505.2079353719964,505.2079353719964,506.4716690569985,75,1,[1.2624303180054994],[1.262447842003894],992430,001,2024-11-13_13h46.00.122,IntentionBinding_Experiment,2024.2.1,80.31990841212867,2024-11-13 13h46.36.262430 +0530,
0.4,1000,exp,116,8,9,space,0.28510562000155915,None,864,1,[1.6537037689995486],[1.6537203699990641],9,8,116,7,506.4777500150012,,506.47191006100184,506.4777500150012,507.4623591499985,507.4623591499985,507.4721781219996,507.75008218199946,space,0.28510562000155915,None,507.75093681499857,508.1560501526658,508.4680124389997,508.44872685000155,508.4494771250029,508.4680124389997,508.4680124389997,508.4680124389997,510.12302294099936,864,1,[1.6537037689995486],[1.6537203699990641],992430,001,2024-11-13_13h46.00.122,IntentionBinding_Experiment,2024.2.1,80.31990841212867,2024-11-13 13h46.36.262430 +0530,
0.1,400,unexp,117,9,9,space,1.0195641809987137,None,252,1,[1.8643360549976933],[1.8643555669987109],9,9,117,0,510.1291744389964,,510.12326372200187,510.1291744389964,511.12145093699655,511.12145093699655,511.12145093699655,512.1481151190019,space,1.0195641809987137,None,512.1487291259982,512.2554022456645,512.5580725809996,512.5416142059985,512.5423432609969,512.5580725809996,512.5580725809996,512.5580725809996,514.4238960649964,252,1,[1.8643360549976933],[1.8643555669987109],992430,001,2024-11-13_13h46.00.122,IntentionBinding_Experiment,2024.2.1,80.31990841212867,2024-11-13 13h46.36.262430 +0530,
0.7,1000,exp,118,10,9,space,0.5235072020004736,None,742,1,[1.471050218999153],[1.471061918004125],9,10,118,8,514.4302814170005,,514.4242244749985,514.4302814170005,515.4213737809987,515.4213737809987,515.4278447179968,515.9484447759969,space,0.5235072020004736,None,515.9490488820011,516.6547287666656,516.9580927089992,516.9422419429975,516.9429987749972,516.9580927089992,516.9580927089992,516.9580927089992,518.4301414770016,742,1,[1.471050218999153],[1.471061918004125],992430,001,2024-11-13_13h46.00.122,IntentionBinding_Experiment,2024.2.1,80.31990841212867,2024-11-13 13h46.36.262430 +0530,
0.4,1000,exp,119,11,9,space,0.4178491330021643,None,256,1,[1.9991231940002763],[1.9991337660030695],9,11,119,4,518.4385661619963,,518.4303849240023,518.4385661619963,519.4278583580017,519.4278583580017,519.4278583580017,519.8482012370005,space,0.4178491330021643,None,519.8487687820016,520.254647943668,520.5642077320008,520.5414951990024,520.5424248220006,520.5642077320008,520.5642077320008,520.5642077320008,522.5644863249981,256,1,[1.9991231940002763],[1.9991337660030695],992430,001,2024-11-13_13h46.00.122,IntentionBinding_Experiment,2024.2.1,80.31990841212867,2024-11-13 13h46.36.262430 +0530,
0.1,1000,exp,120,0,10,space,0.32987988500099164,None,742,1,[2.787237334996462],[2.7872496859999956],10,0,120,6,522.5725911100017,,522.564718458998,522.5725911100017,523.5611273230024,523.5611273230024,523.5611273230024,523.9000820110014,space,0.32987988500099164,None,523.9009346750026,524.0046276906689,524.3104707390012,524.2923270609972,524.2930646640016,524.3104707390012,524.3104707390012,524.3104707390012,527.0988725860007,742,1,[2.787237334996462],[2.7872496859999956],992430,001,2024-11-13_13h46.00.122,IntentionBinding_Experiment,2024.2.1,80.31990841212867,2024-11-13 13h46.36.262430 +0530,
0.4,1000,exp,121,1,10,space,0.5278416970031685,None,143,1,[1.7719414899984258],[1.7719569409964606],10,1,121,4,527.1080202619996,,527.0991402610016,527.1080202619996,528.0946485690001,528.0946485690001,528.1050813249967,528.6300460580023,space,0.5278416970031685,None,528.6305972539994,529.0377374266648,529.3413461320015,529.3247320930022,529.3254138129996,529.3413461320015,529.3413461320015,529.3413461320015,531.1144605000009,143,1,[1.7719414899984258],[1.7719569409964606],992430,001,2024-11-13_13h46.00.122,IntentionBinding_Experiment,2024.2.1,80.31990841212867,2024-11-13 13h46.36.262430 +0530,
0.4,400,unexp,122,2,10,space,0.47912452700256836,None,256,1,[1.8428482679955778],[1.8428644629966584],10,2,122,1,531.1225424009972,,531.1146958359968,531.1225424009972,532.1110749630025,532.1110749630025,532.1211336639972,532.5990618470023,space,0.47912452700256836,None,532.5996191129962,533.0044829216679,533.308045300997,533.2922085429964,533.2929417850028,533.308045300997,533.308045300997,533.308045300997,535.152869728001,256,1,[1.8428482679955778],[1.8428644629966584],992430,001,2024-11-13_13h46.00.122,IntentionBinding_Experiment,2024.2.1,80.31990841212867,2024-11-13 13h46.36.262430 +0530,
0.7,400,unexp,123,3,10,space,0.33106416599912336,None,345,1,[1.6171374039986404],[1.617149382000207],10,3,123,2,535.1592359499991,,535.1531207919979,535.1592359499991,536.1450266899992,536.1450266899992,536.1549750850027,536.4799982460027,space,0.33106416599912336,None,536.4805681189973,537.1877829956686,537.4896422359961,537.4744358079988,537.4751301700016,537.4896422359961,537.4896422359961,537.4896422359961,539.1077637069975,345,1,[1.6171374039986404],[1.617149382000207],992430,001,2024-11-13_13h46.00.122,IntentionBinding_Experiment,2024.2.1,80.31990841212867,2024-11-13 13h46.36.262430 +0530,
0.4,1000,exp,124,4,10,space,2.098356879003404,None,345 ,1,[1.9218817869987106],[1.9218998169963015],10,4,124,10,539.1220045360024,,539.1080498989977,539.1220045360024,540.1056672179984,540.1056672179984,540.1130892069996,542.2069795849966,space,2.098356879003404,None,542.2075088519996,542.6105450766665,542.9144633940014,542.8978854980014,542.8985988599961,542.9144633940014,542.9144633940014,542.9144633940014,544.8378179189967,345 ,1,[1.9218817869987106],[1.9218998169963015],992430,001,2024-11-13_13h46.00.122,IntentionBinding_Experiment,2024.2.1,80.31990841212867,2024-11-13 13h46.36.262430 +0530,
0.7,1000,exp,125,5,10,space,1.0041157880041283,None,567,1,[2.4530884380001226],[2.453099269005179],10,5,125,11,544.8451194879963,,544.8380813940021,544.8451194879963,545.8272201619984,545.8272201619984,545.8444684740025,546.8398652109972,space,1.0041157880041283,None,546.8404104400033,547.5433865656635,547.8470854400002,547.8302259760021,547.830973570999,547.8470854400002,547.8470854400002,547.8470854400002,550.3015637650024,567,1,[2.4530884380001226],[2.453099269005179],992430,001,2024-11-13_13h46.00.122,IntentionBinding_Experiment,2024.2.1,80.31990841212867,2024-11-13 13h46.36.262430 +0530,
0.1,1000,exp,126,6,10,space,0.49451711800065823,None,134,1,[2.7997455639997497],[2.7997558179995394],10,6,126,3,550.3084593099993,,550.3019632080031,550.3084593099993,551.2959223979997,551.2959223979997,551.3069363760005,551.797764445997,space,0.49451711800065823,None,551.7983146080005,551.9058698546689,552.2165484590005,552.1978435749988,552.1985974409981,552.2165484590005,552.2165484590005,552.2165484590005,555.0175232569964,134,1,[2.7997455639997497],[2.7997558179995394],992430,001,2024-11-13_13h46.00.122,IntentionBinding_Experiment,2024.2.1,80.31990841212867,2024-11-13 13h46.36.262430 +0530,
0.4,1000,exp,127,7,10,space,0.5359670769976219,None,258,1,[3.849892999001895],[3.849903162001283],10,7,127,7,555.0244373099995,,555.0178297899984,555.0244373099995,556.0110277369968,556.0110277369968,556.0210200880028,556.5568555150021,space,0.5359670769976219,None,556.5573782470019,556.9613977736628,557.2667665179979,557.2493464579966,557.2504188090024,557.2667665179979,557.2667665179979,557.2667665179979,561.1178255720006,258,1,[3.849892999001895],[3.849903162001283],992430,001,2024-11-13_13h46.00.122,IntentionBinding_Experiment,2024.2.1,80.31990841212867,2024-11-13 13h46.36.262430 +0530,
0.7,1000,exp,128,8,10,space,0.40442494599847123,None,377,1,[2.6802504529987345],[2.6802624499978265],10,8,128,8,561.1245717479978,,561.1182011319979,561.1245717479978,562.1113729889985,562.1113729889985,562.1209123459994,562.5227361319994,space,0.40442494599847123,None,562.5232762239975,563.2271022006646,563.530299060003,563.5144437310009,563.5151462700014,563.530299060003,563.530299060003,563.530299060003,566.2115591900001,377,1,[2.6802504529987345],[2.6802624499978265],992430,001,2024-11-13_13h46.00.122,IntentionBinding_Experiment,2024.2.1,80.31990841212867,2024-11-13 13h46.36.262430 +0530,
0.1,1000,exp,129,9,10,space,0.30157739100104664,None,588,1,[2.5378335999994306],[2.5378518869983964],10,9,129,9,566.2206862000021,,566.211808262,566.2206862000021,567.2044581869995,567.2044581869995,567.2109407839962,567.5138647970016,space,0.30157739100104664,None,567.5143818360011,567.6213664206628,567.9241554499968,567.9080829829982,567.9087700360033,567.9241554499968,567.9241554499968,567.9241554499968,570.4631047770017,588,1,[2.5378335999994306],[2.5378518869983964],992430,001,2024-11-13_13h46.00.122,IntentionBinding_Experiment,2024.2.1,80.31990841212867,2024-11-13 13h46.36.262430 +0530,
0.1,400,unexp,130,10,10,space,0.4060809229995357,None,266,1,[2.8514256100024795],[2.851436155004194],10,10,130,0,570.4715119960019,,570.4633509280029,570.4715119960019,571.4609460840002,571.4609460840002,571.4609460840002,571.8725586369983,space,0.4060809229995357,None,571.8730898529975,571.9781424786672,572.280541068998,572.2640255660008,572.2647162279973,572.280541068998,572.280541068998,572.280541068998,575.1330672769982,266,1,[2.8514256100024795],[2.851436155004194],992430,001,2024-11-13_13h46.00.122,IntentionBinding_Experiment,2024.2.1,80.31990841212867,2024-11-13 13h46.36.262430 +0530,
0.7,1000,exp,131,11,10,space,0.3540304210036993,None,634,1,[2.4000761229981435],[2.400086267000006],10,11,131,5,575.1411822450027,,575.1333733430001,575.1411822450027,576.1271081410014,576.1271081410014,576.1377929189985,576.4889587979997,space,0.3540304210036993,None,576.4895423929993,577.1931304596694,577.498723081997,577.4813515310016,577.4820586759961,577.498723081997,577.498723081997,577.498723081997,579.9001652540028,634,1,[2.4000761229981435],[2.400086267000006],992430,001,2024-11-13_13h46.00.122,IntentionBinding_Experiment,2024.2.1,80.31990841212867,2024-11-13 13h46.36.262430 +0530,
0.1,1000,exp,132,0,11,space,0.3520784479987924,None,156,1,[3.9954495950005366],[3.995459726000263],11,0,132,3,579.9076887479969,,579.900444081999,579.9076887479969,580.8940984930014,580.8940984930014,580.9045284509994,581.2559956580008,space,0.3520784479987924,None,581.2565318209963,581.3601679666647,581.6640001429987,581.6475462539966,581.6483419340002,581.6640001429987,581.6640001429987,581.6640001429987,585.6605000830023,156,1,[3.9954495950005366],[3.995459726000263],992430,001,2024-11-13_13h46.00.122,IntentionBinding_Experiment,2024.2.1,80.31990841212867,2024-11-13 13h46.36.262430 +0530,
0.4,1000,exp,133,1,11,space,0.3430470509993029,None,753,1,[1.5152242709955317],[1.5152345189999323],11,1,133,7,585.670513694,,585.6607497489967,585.670513694,586.6544536479996,586.6544536479996,586.6612614629994,587.0066340289995,space,0.3430470509993029,None,587.007190933,587.4100239796646,587.7146278790024,587.6971452729995,587.6978508980028,587.7146278790024,587.7146278790024,587.7146278790024,589.2308629010004,753,1,[1.5152242709955317],[1.5152345189999323],992430,001,2024-11-13_13h46.00.122,IntentionBinding_Experiment,2024.2.1,80.31990841212867,2024-11-13 13h46.36.262430 +0530,
0.1,1000,exp,134,2,11,space,0.3962769499994465,None,159,1,[2.370420198996726],[2.3704331449989695],11,2,134,6,589.2391962589973,,589.2311026940006,589.2391962589973,590.2267742319964,590.2267742319964,590.2369497499967,590.6292910650009,space,0.3962769499994465,None,590.629814097003,590.7290090426652,591.0395072629981,591.0249040220006,591.0255771500015,591.0395072629981,591.0395072629981,591.0395072629981,593.4110827300028,159,1,[2.370420198996726],[2.3704331449989695],992430,001,2024-11-13_13h46.00.122,IntentionBinding_Experiment,2024.2.1,80.31990841212867,2024-11-13 13h46.36.262430 +0530,
0.7,400,unexp,135,3,11,space,0.33379951099777827,None,853,1,[2.241266912998981],[2.2412783239997225],11,3,135,2,593.4213018809969,,593.4113491820026,593.4213018809969,594.4046019449961,594.4046019449961,594.4116346520022,594.7465961190028,space,0.33379951099777827,None,594.747159352999,595.4545241496637,595.7571055969966,595.7407450579994,595.7414472020027,595.7571055969966,595.7571055969966,595.7571055969966,597.9997544319995,853,1,[2.241266912998981],[2.2412783239997225],992430,001,2024-11-13_13h46.00.122,IntentionBinding_Experiment,2024.2.1,80.31990841212867,2024-11-13 13h46.36.262430 +0530,
0.1,400,unexp,136,4,11,space,0.2743490490029217,None,267,1,[2.810044429003028],[2.810056191003241],11,4,136,0,598.0069996219972,,598.0001044059973,598.0069996219972,598.9966867050025,598.9966867050025,599.0077131849976,599.2792943890017,space,0.2743490490029217,None,599.2798090130018,599.3869103676664,599.6883741900019,599.6736924509969,599.6743916709966,599.6883741900019,599.6883741900019,599.6883741900019,602.4999186330024,267,1,[2.810044429003028],[2.810056191003241],992430,001,2024-11-13_13h46.00.122,IntentionBinding_Experiment,2024.2.1,80.31990841212867,2024-11-13 13h46.36.262430 +0530,
0.1,1000,exp,137,5,11,space,0.3936052520002704,None,643,1,[2.9492003369960003],[2.9492146039992804],11,5,137,9,602.5077321450008,,602.5001979529989,602.5077321450008,603.4935928010018,603.4935928010018,603.5039942340009,603.8906560079995,space,0.3936052520002704,None,603.8911938599995,603.9926390546646,604.2974950319986,604.2805412340022,604.2812130469974,604.2974950319986,604.2974950319986,604.2974950319986,607.2479820410008,643,1,[2.9492003369960003],[2.9492146039992804],992430,001,2024-11-13_13h46.00.122,IntentionBinding_Experiment,2024.2.1,80.31990841212867,2024-11-13 13h46.36.262430 +0530,
0.4,1000,exp,138,6,11,space,0.5982594529996277,None,633,1,[2.803921913000522],[2.8039401459973305],11,6,138,10,607.2566730289982,,607.2482300129996,607.2566730289982,608.2437930460001,608.2437930460001,608.2539383219992,608.8463420490007,space,0.5982594529996277,None,608.8469050950007,609.2551523556651,609.5640340419995,609.546832277003,609.547541685999,609.5640340419995,609.5640340419995,609.5640340419995,612.3693687630002,633,1,[2.803921913000522],[2.8039401459973305],992430,001,2024-11-13_13h46.00.122,IntentionBinding_Experiment,2024.2.1,80.31990841212867,2024-11-13 13h46.36.262430 +0530,
0.7,1000,exp,139,7,11,space,0.5403170829958981,None,134,1,[2.812697738998395],[2.812709003002965],11,7,139,5,612.3755623179968,,612.3696169589966,612.3755623179968,613.3626905459969,613.3626905459969,613.3871478649962,613.9061835719986,space,0.5403170829958981,None,613.906793012,614.609550977668,614.9136775049992,614.896881804998,614.8976109470022,614.9136775049992,614.9136775049992,614.9136775049992,617.7274597329961,134,1,[2.812697738998395],[2.812709003002965],992430,001,2024-11-13_13h46.00.122,IntentionBinding_Experiment,2024.2.1,80.31990841212867,2024-11-13 13h46.36.262430 +0530,
0.7,1000,exp,140,8,11,space,0.5277974669952528,None,452,1,[1.5603436550009064],[1.5603546689962968],11,8,140,8,617.7367907759981,,617.7277107339978,617.7367907759981,618.7261279539962,618.7261279539962,618.7261279539962,619.2562393190019,space,0.5277974669952528,None,619.2568234080027,619.959796628664,620.2637432260017,620.2464870710028,620.2472522399985,620.2637432260017,620.2637432260017,620.2637432260017,621.825115945001,452,1,[1.5603436550009064],[1.5603546689962968],992430,001,2024-11-13_13h46.00.122,IntentionBinding_Experiment,2024.2.1,80.31990841212867,2024-11-13 13h46.36.262430 +0530,
0.7,1000,exp,141,9,11,space,0.3037674299994251,None,242,1,[1.7612814429958235],[1.7612941859988496],11,9,141,11,621.8314615589989,,621.8253494370001,621.8314615589989,622.8198988809963,622.8198988809963,622.8263829229982,623.128947156998,space,0.3037674299994251,None,623.1294827340025,623.836767023666,624.138281765001,624.123050715003,624.1237421120022,624.138281765001,624.138281765001,624.138281765001,625.9014854799971,242,1,[1.7612814429958235],[1.7612941859988496],992430,001,2024-11-13_13h46.00.122,IntentionBinding_Experiment,2024.2.1,80.31990841212867,2024-11-13 13h46.36.262430 +0530,
0.4,400,unexp,142,10,11,space,0.3399209900017013,None,732,1,[1.9095860129964422],[1.909596484998474],11,10,142,1,625.9079997220033,,625.9017384230028,625.9079997220033,626.893414238999,626.893414238999,626.9036021009961,627.2388860639985,space,0.3399209900017013,None,627.239445266001,627.6422667266636,627.9466335160032,627.9291597129995,627.9298861260031,627.9466335160032,627.9466335160032,627.9466335160032,629.8572141199984,732,1,[1.9095860129964422],[1.909596484998474],992430,001,2024-11-13_13h46.00.122,IntentionBinding_Experiment,2024.2.1,80.31990841212867,2024-11-13 13h46.36.262430 +0530,
0.4,1000,exp,143,11,11,space,0.2885654690035153,None,24,1,[2.013110683998093],[2.013124985001923],11,11,143,4,629.8635131530027,,629.8574583520021,629.8635131530027,630.8535399169996,630.8535399169996,630.8602696149974,631.1461497440032,space,0.2885654690035153,None,631.1467229909977,631.5531908646628,631.8561783019977,631.8398612620003,631.840618000002,631.8561783019977,631.8561783019977,631.8561783019977,633.8705996610006,24,1,[2.013110683998093],[2.013124985001923],992430,001,2024-11-13_13h46.00.122,IntentionBinding_Experiment,2024.2.1,80.31990841212867,2024-11-13 13h46.36.262430 +0530,
0.1,1000,exp,144,0,12,space,0.31628468200506177,None,35,1,[1.608373629002017],[1.6083861700026318],12,0,144,6,633.8767961819976,,633.870840577998,633.8767961819976,634.8601397050006,634.8601397050006,634.8699043820016,635.1789131100013,space,0.31628468200506177,None,635.1794857200002,635.2780323736699,635.5881145769963,635.5731670090026,635.5738501870001,635.5881145769963,635.5881145769963,635.5881145769963,637.1976570420011,35,1,[1.608373629002017],[1.6083861700026318],992430,001,2024-11-13_13h46.00.122,IntentionBinding_Experiment,2024.2.1,80.31990841212867,2024-11-13 13h46.36.262430 +0530,
0.7,1000,exp,145,1,12,space,0.38557480899908114,None,47,1,[1.251880247000372],[1.251891316002002],12,1,145,11,637.206517769002,,637.1979241779991,637.206517769002,638.1933523949992,638.1933523949992,638.2035715699967,638.5882436140018,space,0.38557480899908114,None,638.5888059839999,639.2921404766641,639.5974381819979,639.5789992380014,639.5798363740032,639.5974381819979,639.5974381819979,639.5974381819979,640.8510588779973,47,1,[1.251880247000372],[1.251891316002002],992430,001,2024-11-13_13h46.00.122,IntentionBinding_Experiment,2024.2.1,80.31990841212867,2024-11-13 13h46.36.262430 +0530,
0.7,1000,exp,146,2,12,space,0.725487718002114,None,58,1,[1.3391528590000235],[1.3391742430030718],12,2,146,8,640.8588031339968,,640.851536467002,640.8588031339968,641.843053497003,641.843053497003,641.8535748119975,642.5713797089993,space,0.725487718002114,None,642.5719160719964,643.2760421766691,643.5794985210014,643.5625602400032,643.5632431100021,643.5794985210014,643.5794985210014,643.5794985210014,644.9201026360024,58,1,[1.3391528590000235],[1.3391742430030718],992430,001,2024-11-13_13h46.00.122,IntentionBinding_Experiment,2024.2.1,80.31990841212867,2024-11-13 13h46.36.262430 +0530,
0.4,1000,exp,147,3,12,space,0.37857245299528586,None,69,1,[2.0649990669990075],[2.065009222998924],12,3,147,10,644.9262086439994,,644.9203543390031,644.9262086439994,645.9096330859975,645.9096330859975,645.9196393329985,646.2967488650029,space,0.37857245299528586,None,646.2972680960011,646.7029684366682,647.006307126001,646.989689258,646.9903862290012,647.006307126001,647.006307126001,647.006307126001,649.0722757359981,69,1,[2.0649990669990075],[2.065009222998924],992430,001,2024-11-13_13h46.00.122,IntentionBinding_Experiment,2024.2.1,80.31990841212867,2024-11-13 13h46.36.262430 +0530,
0.1,400,unexp,148,4,12,space,0.3982149910007138,None,532,1,[1.9963303170006839],[1.9963504359984654],12,4,148,0,649.0872496570009,,649.0725131029976,649.0872496570009,650.0698235449963,650.0698235449963,650.0769417909978,650.4718677529963,space,0.3982149910007138,None,650.4724967430011,650.5780047926639,650.8881155909985,650.8727779120018,650.8734708069969,650.8881155909985,650.8881155909985,650.8881155909985,652.8858192909975,532,1,[1.9963303170006839],[1.9963504359984654],992430,001,2024-11-13_13h46.00.122,IntentionBinding_Experiment,2024.2.1,80.31990841212867,2024-11-13 13h46.36.262430 +0530,
0.1,1000,exp,149,5,12,space,0.35232948799966834,None,55,1,[1.3796912339967093],[1.3797124409975368],12,5,149,9,652.8926603829968,,652.8860908499992,652.8926603829968,653.8758676180005,653.8758676180005,653.8862831110018,654.2379935209974,space,0.35232948799966834,None,654.2386516400002,654.3432406646646,654.6559835890002,654.6395908990016,654.6403629190027,654.6559835890002,654.6559835890002,654.6559835890002,656.0371473850028,55,1,[1.3796912339967093],[1.3797124409975368],992430,001,2024-11-13_13h46.00.122,IntentionBinding_Experiment,2024.2.1,80.31990841212867,2024-11-13 13h46.36.262430 +0530,
0.7,400,unexp,150,6,12,space,0.24085438199836062,None,63,1,[1.4416025120008271],[1.4416239830025006],12,6,150,2,656.044508525003,,656.0374048649974,656.044508525003,657.0362937999962,657.0362937999962,657.043272748997,657.2871917660013,space,0.24085438199836062,None,657.2877670020025,657.9919012836656,658.2956797169973,658.2787709819968,658.2794647159972,658.2956797169973,658.2956797169973,658.2956797169973,659.7388685490005,63,1,[1.4416025120008271],[1.4416239830025006],992430,001,2024-11-13_13h46.00.122,IntentionBinding_Experiment,2024.2.1,80.31990841212867,2024-11-13 13h46.36.262430 +0530,
0.4,400,unexp,151,7,12,space,0.44643666699994355,None,17,1,[1.6598392520027119],[1.659858555001847],12,7,151,1,659.7457981749976,,659.7391735959973,659.7457981749976,660.7361288039974,660.7361288039974,660.7430632739997,661.1882348549989,space,0.44643666699994355,None,661.1888060109995,661.5931025806678,661.905323058003,661.8895248510016,661.8902352899968,661.905323058003,661.905323058003,661.905323058003,663.5665403370003,17,1,[1.6598392520027119],[1.659858555001847],992430,001,2024-11-13_13h46.00.122,IntentionBinding_Experiment,2024.2.1,80.31990841212867,2024-11-13 13h46.36.262430 +0530,
0.4,1000,exp,152,8,12,space,0.28452080200077035,None,54,1,[2.202672083003563],[2.202684953001153],12,8,152,4,663.5732152479977,,663.5669080320004,663.5732152479977,664.5595052400022,664.5595052400022,664.5693177479989,664.8580478599979,space,0.28452080200077035,None,664.8585866189969,665.2589067716656,665.5625336649973,665.5458862259984,665.5465892209977,665.5625336649973,665.5625336649973,665.5625336649973,667.7666686489974,54,1,[2.202672083003563],[2.202684953001153],992430,001,2024-11-13_13h46.00.122,IntentionBinding_Experiment,2024.2.1,80.31990841212867,2024-11-13 13h46.36.262430 +0530,
0.7,1000,exp,153,9,12,space,0.3000752090010792,None,82,1,[1.6044514749955852],[1.6044644180001342],12,9,153,5,667.7735237000015,,667.767078582001,667.7735237000015,668.7596351399989,668.7596351399989,668.7694048190024,669.0623233130027,space,0.3000752090010792,None,669.0629241749994,669.7700402686644,670.0716213560008,670.0565930550001,670.0572796369961,670.0716213560008,670.0716213560008,670.0716213560008,671.6771305130023,82,1,[1.6044514749955852],[1.6044644180001342],992430,001,2024-11-13_13h46.00.122,IntentionBinding_Experiment,2024.2.1,80.31990841212867,2024-11-13 13h46.36.262430 +0530,
0.1,1000,exp,154,10,12,space,0.28508412000519456,None,28,1,[1.9515103650046512],[1.951520870999957],12,10,154,3,671.6861720660017,,671.6773716780008,671.6861720660017,672.6754720300014,672.6754720300014,672.6754720300014,672.9745537010022,space,0.28508412000519456,None,672.9750895519974,673.0771118056693,673.3800604499993,673.3635956060025,673.3642784050026,673.3800604499993,673.3800604499993,673.3800604499993,675.332924012997,28,1,[1.9515103650046512],[1.951520870999957],992430,001,2024-11-13_13h46.00.122,IntentionBinding_Experiment,2024.2.1,80.31990841212867,2024-11-13 13h46.36.262430 +0530,
0.4,1000,exp,155,11,12,space,0.5962162369978614,None,666,1,[2.0824876930055325],[2.0825059740018332],12,11,155,7,675.3399099919989,,675.3333015989992,675.3399099919989,676.325766781003,676.325766781003,676.3359118090011,676.9282936149975,space,0.5962162369978614,None,676.9288657340003,677.3357793706639,677.6374433169985,677.6225998329974,677.6232790939976,677.6374433169985,677.6374433169985,677.6374433169985,679.7213977569991,666,1,[2.0824876930055325],[2.0825059740018332],992430,001,2024-11-13_13h46.00.122,IntentionBinding_Experiment,2024.2.1,80.31990841212867,2024-11-13 13h46.36.262430 +0530,
0.4,1000,exp,156,0,13,space,0.3593454860019847,None,833,1,[3.030794127997069],[3.030804100999376],13,0,156,10,679.7275418170029,,679.721641547003,679.7275418170029,680.7203744479993,680.7203744479993,680.7268092419981,681.0878715049985,space,0.3593454860019847,None,681.0884458979999,681.4917077716639,681.7951462600031,681.7786752329994,681.7793480239998,681.7951462600031,681.7951462600031,681.7951462600031,684.8270581510005,833,1,[3.030794127997069],[3.030804100999376],992430,001,2024-11-13_13h46.00.122,IntentionBinding_Experiment,2024.2.1,80.31990841212867,2024-11-13 13h46.36.262430 +0530,
0.7,1000,exp,157,1,13,space,0.4270062659998075,None,100 ,1,[2.883159450000676],[2.8831716640052036],13,1,157,5,684.8359828329994,,684.8273159750024,684.8359828329994,685.8249802669961,685.8249802669961,685.8249802669961,686.2552285450001,space,0.4270062659998075,None,686.2557817359993,686.9586165826661,687.2627068759975,687.245413167002,687.2461216110023,687.2627068759975,687.2627068759975,687.2627068759975,690.1471544610031,100 ,1,[2.883159450000676],[2.8831716640052036],992430,001,2024-11-13_13h46.00.122,IntentionBinding_Experiment,2024.2.1,80.31990841212867,2024-11-13 13h46.36.262430 +0530,
0.7,400,unexp,158,2,13,space,0.3007568149987492,None,254,1,[2.420076424998115],[2.42009027399763],13,2,158,2,690.1560619209995,,690.147398672998,690.1560619209995,691.142326838999,691.142326838999,691.1527140699982,691.4454487460025,space,0.3007568149987492,None,691.4460166110002,692.1522925116699,692.4560097909998,692.439182160997,692.4398788620019,692.4560097909998,692.4560097909998,692.4560097909998,694.8772254110008,254,1,[2.420076424998115],[2.42009027399763],992430,001,2024-11-13_13h46.00.122,IntentionBinding_Experiment,2024.2.1,80.31990841212867,2024-11-13 13h46.36.262430 +0530,
0.7,1000,exp,159,3,13,space,0.5046463740000036,None,425,1,[2.234575546994165],[2.234603791999689],13,3,159,11,694.8857437539991,,694.8774941669981,694.8857437539991,695.8751396049993,695.8751396049993,695.8751396049993,696.3873015299978,space,0.5046463740000036,None,696.3878234340009,697.0912678916686,697.3947296449987,697.3785241139994,697.3791701570008,697.3947296449987,697.3947296449987,697.3947296449987,699.6305930149974,425,1,[2.234575546994165],[2.234603791999689],992430,001,2024-11-13_13h46.00.122,IntentionBinding_Experiment,2024.2.1,80.31990841212867,2024-11-13 13h46.36.262430 +0530,
0.4,1000,exp,160,4,13,space,1.6851323549999506,None,622,1,[1.8406145409971941],[1.840623878997576],13,4,160,4,699.6391833930029,,699.6308560160032,699.6391833930029,700.6253897540009,700.6253897540009,700.6358751559965,702.3238841409984,space,1.6851323549999506,None,702.3244861869971,702.7251830656644,703.0290645490022,703.0124374860025,703.0131220370022,703.0290645490022,703.0290645490022,703.0290645490022,704.8710048979992,622,1,[1.8406145409971941],[1.840623878997576],992430,001,2024-11-13_13h46.00.122,IntentionBinding_Experiment,2024.2.1,80.31990841212867,2024-11-13 13h46.36.262430 +0530,
0.1,1000,exp,161,5,13,space,0.6250800060006441,None,28,1,[2.023491678002756],[2.0235085080057615],13,5,161,9,704.8773488630031,,704.8712420879965,704.8773488630031,705.8687689819999,705.8687689819999,705.8753526319997,706.5043399150018,space,0.6250800060006441,None,706.504879303,706.6084614256654,706.9113639069983,706.8952360050025,706.8959437910016,706.9113639069983,706.9113639069983,706.9113639069983,708.9362070040006,28,1,[2.023491678002756],[2.0235085080057615],992430,001,2024-11-13_13h46.00.122,IntentionBinding_Experiment,2024.2.1,80.31990841212867,2024-11-13 13h46.36.262430 +0530,
0.4,1000,exp,162,6,13,space,0.2952783439977793,None,62,1,[1.8637663750050706],[1.8637920370019856],13,6,162,7,708.9433453169986,,708.9364650159987,708.9433453169986,709.9252147579973,709.9252147579973,709.9421100390027,710.2277174530027,space,0.2952783439977793,None,710.2282621249979,710.6353057076669,710.9361670979997,710.9219984759984,710.9226666559989,710.9361670979997,710.9361670979997,710.9361670979997,712.8017785249976,62,1,[1.8637663750050706],[1.8637920370019856],992430,001,2024-11-13_13h46.00.122,IntentionBinding_Experiment,2024.2.1,80.31990841212867,2024-11-13 13h46.36.262430 +0530,
0.4,400,unexp,163,7,13,space,0.5097474430003786,None,16 ,1,[1.9641865970043],[1.9641986420028843],13,7,163,1,712.808478787003,,712.8020427579977,712.808478787003,713.7932614169986,713.7932614169986,713.802968105003,714.3052805039988,space,0.5097474430003786,None,714.3058547070032,714.7080549086643,715.0120754469972,714.9950892909983,714.9958042139988,715.0120754469972,715.0120754469972,715.0120754469972,716.9773074260011,16 ,1,[1.9641865970043],[1.9641986420028843],992430,001,2024-11-13_13h46.00.122,IntentionBinding_Experiment,2024.2.1,80.31990841212867,2024-11-13 13h46.36.262430 +0530,
