thisN,thisTrialN,thisRepN,mouse.x,mouse.y,mouse.leftButton,mouse.midButton,mouse.rightButton,mouse.time,mouse.clicked_name,trials.thisRepN,trials.thisTrialN,trials.thisN,trials.thisIndex,thisRow.t,notes,num_distr,trial.started,fixation.started,target.started,mouse.started,trial.stopped,trials.mouse.x,trials.mouse.y,trials.mouse.leftButton,trials.mouse.midButton,trials.mouse.rightButton,trials.mouse.time,trials.mouse.clicked_name,participant,session,date,expName,psychopyVersion,frameRate,expStart,
0,0,0,[0.15666666666666668],[0.33666666666666667],[1],[0],[0],[1.8846286090010835],['target'],0,0,0,0,0.062484051999490475,,5,0.04088838800089434,0.062484051999490475,0.062484051999490475,0.04058486599751632,1.9259990450009354,[0.15666666666666668],[0.33666666666666667],[1],[0],[0],[1.8846286090010835],['target'],775551,001,2024-10-09_18h32.51.122,VISUALSEARCH,2024.2.1,42.04077773836542,2024-10-09 18h33.04.014668 +0530,
1,0,1,[-0.13],[-0.21833333333333332],[1],[0],[0],[1.26102569700015],['target'],1,0,1,0,1.9544039579996024,,5,1.942372476998571,1.9544039579996024,1.9544039579996024,0.016166049001185456,3.2038930550006626,[-0.13],[-0.21833333333333332],[1],[0],[0],[1.26102569700015],['target'],775551,001,2024-10-09_18h32.51.122,VISUALSEARCH,2024.2.1,42.04077773836542,2024-10-09 18h33.04.014668 +0530,
2,0,2,[0.44166666666666665],[-0.39],[1],[0],[0],[2.16717051500018],['target'],2,0,2,0,3.2477190509998763,,10,3.2330123009996896,3.2477190509998763,3.2477190509998763,0.028924168000230566,5.400755464001122,[0.44166666666666665],[-0.39],[1],[0],[0],[2.16717051500018],['target'],775551,001,2024-10-09_18h32.51.122,VISUALSEARCH,2024.2.1,42.04077773836542,2024-10-09 18h33.04.014668 +0530,
3,0,3,[-0.29333333333333333],[-0.2866666666666667],[1],[0],[0],[4.072226131000207],['target'],3,0,3,0,5.427682736000861,,5,5.417674135998823,5.427682736000861,5.427682736000861,0.016745191998779774,9.490345136000542,[-0.29333333333333333],[-0.2866666666666667],[1],[0],[0],[4.072226131000207],['target'],775551,001,2024-10-09_18h32.51.122,VISUALSEARCH,2024.2.1,42.04077773836542,2024-10-09 18h33.04.014668 +0530,
4,0,4,[-0.3933333333333333],[0.025],[1],[0],[0],[1.7228086490031274],['target'],4,0,4,0,9.53286405399922,,10,9.517723649998516,9.53286405399922,9.53286405399922,0.027246923997154227,11.240932019001775,[-0.3933333333333333],[0.025],[1],[0],[0],[1.7228086490031274],['target'],775551,001,2024-10-09_18h32.51.122,VISUALSEARCH,2024.2.1,42.04077773836542,2024-10-09 18h33.04.014668 +0530,
5,0,5,[0.37833333333333335],[-0.18166666666666667],[1],[0],[0],[1.5397556040006748],['target'],5,0,5,0,11.266457650999655,,5,11.255839886998729,11.266457650999655,11.266457650999655,0.01474993500232813,12.79602368400083,[0.37833333333333335],[-0.18166666666666667],[1],[0],[0],[1.5397556040006748],['target'],775551,001,2024-10-09_18h32.51.122,VISUALSEARCH,2024.2.1,42.04077773836542,2024-10-09 18h33.04.014668 +0530,
6,0,6,[0.30666666666666664],[-0.45666666666666667],[1],[0],[0],[3.289866275001259],['target'],6,0,6,0,12.839037276000454,,10,12.824122055000771,12.839037276000454,12.839037276000454,0.027969293001660844,16.114395447999414,[0.30666666666666664],[-0.45666666666666667],[1],[0],[0],[3.289866275001259],['target'],775551,001,2024-10-09_18h32.51.122,VISUALSEARCH,2024.2.1,42.04077773836542,2024-10-09 18h33.04.014668 +0530,
7,0,7,[0.13333333333333333],[-0.13],[1],[0],[0],[1.874093416998221],['target'],7,0,7,0,16.140411604999827,,5,16.130030986998463,16.140411604999827,16.140411604999827,0.015478264998819213,18.004568658001517,[0.13333333333333333],[-0.13],[1],[0],[0],[1.874093416998221],['target'],775551,001,2024-10-09_18h32.51.122,VISUALSEARCH,2024.2.1,42.04077773836542,2024-10-09 18h33.04.014668 +0530,
8,0,8,[-0.3883333333333333],[-0.4716666666666667],[1],[0],[0],[2.2974378229992],['target'],8,0,8,0,18.028621135999856,,5,18.0190638210006,18.028621135999856,18.028621135999856,0.014361413999722572,20.316906233998452,[-0.3883333333333333],[-0.4716666666666667],[1],[0],[0],[2.2974378229992],['target'],775551,001,2024-10-09_18h32.51.122,VISUALSEARCH,2024.2.1,42.04077773836542,2024-10-09 18h33.04.014668 +0530,
9,0,9,[-0.043333333333333335],[0.49166666666666664],[1],[0],[0],[2.125863830002345],['target'],9,0,9,0,20.34155268199902,,5,20.331677012,20.34155268199902,20.34155268199902,0.014643075999629218,22.458118307000404,[-0.043333333333333335],[0.49166666666666664],[1],[0],[0],[2.125863830002345],['target'],775551,001,2024-10-09_18h32.51.122,VISUALSEARCH,2024.2.1,42.04077773836542,2024-10-09 18h33.04.014668 +0530,
10,0,10,[-0.26],[0.32666666666666666],[1],[0],[0],[2.5755578320022323],['target'],10,0,10,0,22.50054123099835,,10,22.48563342000125,22.50054123099835,22.50054123099835,0.027338419000443537,25.06165879800028,[-0.26],[0.32666666666666666],[1],[0],[0],[2.5755578320022323],['target'],775551,001,2024-10-09_18h32.51.122,VISUALSEARCH,2024.2.1,42.04077773836542,2024-10-09 18h33.04.014668 +0530,
11,0,11,[0.43],[0.205],[1],[0],[0],[1.5859401029993023],['target'],11,0,11,0,25.104563685999892,,10,25.08993115499834,25.104563685999892,25.104563685999892,0.028080889998818748,26.676780678000796,[0.43],[0.205],[1],[0],[0],[1.5859401029993023],['target'],775551,001,2024-10-09_18h32.51.122,VISUALSEARCH,2024.2.1,42.04077773836542,2024-10-09 18h33.04.014668 +0530,
12,0,12,[-0.1],[0.09666666666666666],[1],[0],[0],[2.183710228000564],['target'],12,0,12,0,26.702486674999818,,5,26.69155527700059,26.702486674999818,26.702486674999818,0.014511198998661712,28.875671248999424,[-0.1],[0.09666666666666666],[1],[0],[0],[2.183710228000564],['target'],775551,001,2024-10-09_18h32.51.122,VISUALSEARCH,2024.2.1,42.04077773836542,2024-10-09 18h33.04.014668 +0530,
13,0,13,[-0.145],[0.22833333333333333],[1],[0],[0],[1.4529601479989651],['target'],13,0,13,0,28.901814761000423,,5,28.891046173001087,28.901814761000423,28.901814761000423,0.015240472999721533,30.344521522998548,[-0.145],[0.22833333333333333],[1],[0],[0],[1.4529601479989651],['target'],775551,001,2024-10-09_18h32.51.122,VISUALSEARCH,2024.2.1,42.04077773836542,2024-10-09 18h33.04.014668 +0530,
14,0,14,[-0.08166666666666667],[0.11666666666666667],[1],[0],[0],[1.662494316999073],['target'],14,0,14,0,30.391291436000756,,10,30.375426336999226,30.391291436000756,30.391291436000756,0.030745680000109132,32.03845761800039,[-0.08166666666666667],[0.11666666666666667],[1],[0],[0],[1.662494316999073],['target'],775551,001,2024-10-09_18h32.51.122,VISUALSEARCH,2024.2.1,42.04077773836542,2024-10-09 18h33.04.014668 +0530,
15,0,15,[-0.3616666666666667],[0.49166666666666664],[1],[0],[0],[1.7362276380008552],['target'],15,0,15,0,32.0820298869985,,10,32.06704683100179,32.0820298869985,32.0820298869985,0.028395719000400277,33.80368560699935,[-0.3616666666666667],[0.49166666666666664],[1],[0],[0],[1.7362276380008552],['target'],775551,001,2024-10-09_18h32.51.122,VISUALSEARCH,2024.2.1,42.04077773836542,2024-10-09 18h33.04.014668 +0530,
16,0,16,[-0.1],[0.415],[1],[0],[0],[1.6282392160028394],['target'],16,0,16,0,33.84787503899861,,10,33.832808315000875,33.84787503899861,33.84787503899861,0.02893992899771547,35.461437208999996,[-0.1],[0.415],[1],[0],[0],[1.6282392160028394],['target'],775551,001,2024-10-09_18h32.51.122,VISUALSEARCH,2024.2.1,42.04077773836542,2024-10-09 18h33.04.014668 +0530,
17,0,17,[0.1],[0.058333333333333334],[1],[0],[0],[1.2811180829994555],['target'],17,0,17,0,35.50511013600044,,10,35.48959064099836,35.50511013600044,35.50511013600044,0.02801286700196215,36.77117709700178,[0.1],[0.058333333333333334],[1],[0],[0],[1.2811180829994555],['target'],775551,001,2024-10-09_18h32.51.122,VISUALSEARCH,2024.2.1,42.04077773836542,2024-10-09 18h33.04.014668 +0530,
18,0,18,[-0.045],[0.3283333333333333],[1],[0],[0],[1.178710134998255],['target'],18,0,18,0,36.81466807700053,,10,36.79943190999984,36.81466807700053,36.81466807700053,0.02809475599860889,37.97851466700013,[-0.045],[0.3283333333333333],[1],[0],[0],[1.178710134998255],['target'],775551,001,2024-10-09_18h32.51.122,VISUALSEARCH,2024.2.1,42.04077773836542,2024-10-09 18h33.04.014668 +0530,
19,0,19,[0.215],[0.45],[1],[0],[0],[6.927228874999855],['target'],19,0,19,0,38.02284561999841,,10,38.007337148999795,38.02284561999841,38.02284561999841,0.02866093199918396,44.93523886299954,[0.215],[0.45],[1],[0],[0],[6.927228874999855],['target'],775551,001,2024-10-09_18h32.51.122,VISUALSEARCH,2024.2.1,42.04077773836542,2024-10-09 18h33.04.014668 +0530,
20,0,20,[0.2966666666666667],[-0.3433333333333333],[1],[0],[0],[2.126021148000291],['target'],20,0,20,0,44.97948565700062,,10,44.96446782899875,44.97948565700062,44.97948565700062,0.028953000000910833,47.0908665930001,[0.2966666666666667],[-0.3433333333333333],[1],[0],[0],[2.126021148000291],['target'],775551,001,2024-10-09_18h32.51.122,VISUALSEARCH,2024.2.1,42.04077773836542,2024-10-09 18h33.04.014668 +0530,
21,0,21,[-0.016666666666666666],[-0.05333333333333334],[1],[0],[0],[1.4098870220004756],['target'],21,0,21,0,47.11771605800095,,5,47.10631641800137,47.11771605800095,47.11771605800095,0.015295454999431968,48.516598047001025,[-0.016666666666666666],[-0.05333333333333334],[1],[0],[0],[1.4098870220004756],['target'],775551,001,2024-10-09_18h32.51.122,VISUALSEARCH,2024.2.1,42.04077773836542,2024-10-09 18h33.04.014668 +0530,
22,0,22,[0.09833333333333333],[-0.15166666666666667],[1],[0],[0],[1.5184113329996762],['target'],22,0,22,0,48.541948303001845,,5,48.53031920899957,48.541948303001845,48.541948303001845,0.013596052998764208,50.049473471000965,[0.09833333333333333],[-0.15166666666666667],[1],[0],[0],[1.5184113329996762],['target'],775551,001,2024-10-09_18h32.51.122,VISUALSEARCH,2024.2.1,42.04077773836542,2024-10-09 18h33.04.014668 +0530,
23,0,23,[0.16666666666666666],[-0.075],[1],[0],[0],[1.1021932139992714],['target'],23,0,23,0,50.094975846001034,,10,50.079692551000335,50.094975846001034,50.094975846001034,0.029833333999704337,51.1825234550015,[0.16666666666666666],[-0.075],[1],[0],[0],[1.1021932139992714],['target'],775551,001,2024-10-09_18h32.51.122,VISUALSEARCH,2024.2.1,42.04077773836542,2024-10-09 18h33.04.014668 +0530,
24,0,24,[0.27],[-0.16],[1],[0],[0],[1.6479018439968058],['target'],24,0,24,0,51.225295346001076,,10,51.209688618000655,51.225295346001076,51.225295346001076,0.0269809349993011,52.85805255100058,[0.27],[-0.16],[1],[0],[0],[1.6479018439968058],['target'],775551,001,2024-10-09_18h32.51.122,VISUALSEARCH,2024.2.1,42.04077773836542,2024-10-09 18h33.04.014668 +0530,
25,0,25,[0.3283333333333333],[0.16833333333333333],[1],[0],[0],[5.693001989999175],['target'],25,0,25,0,52.90189884999927,,10,52.88615250300063,52.90189884999927,52.90189884999927,0.02797728299992741,58.57970179100084,[0.3283333333333333],[0.16833333333333333],[1],[0],[0],[5.693001989999175],['target'],775551,001,2024-10-09_18h32.51.122,VISUALSEARCH,2024.2.1,42.04077773836542,2024-10-09 18h33.04.014668 +0530,
26,0,26,[-0.32666666666666666],[0.058333333333333334],[1],[0],[0],[1.7948465740009851],['target'],26,0,26,0,58.62235842999871,,10,58.607561660999636,58.62235842999871,58.62235842999871,0.02769681700010551,60.40292838700043,[-0.32666666666666666],[0.058333333333333334],[1],[0],[0],[1.7948465740009851],['target'],775551,001,2024-10-09_18h32.51.122,VISUALSEARCH,2024.2.1,42.04077773836542,2024-10-09 18h33.04.014668 +0530,
27,0,27,[0.3983333333333333],[-0.155],[1],[0],[0],[1.640423404998728],['target'],27,0,27,0,60.44744457200068,,10,60.431633872998646,60.44744457200068,60.44744457200068,0.028507037997769658,62.07252083899948,[0.3983333333333333],[-0.155],[1],[0],[0],[1.640423404998728],['target'],775551,001,2024-10-09_18h32.51.122,VISUALSEARCH,2024.2.1,42.04077773836542,2024-10-09 18h33.04.014668 +0530,
28,0,28,[0.3283333333333333],[-0.18166666666666667],[1],[0],[0],[1.3124449019996973],['target'],28,0,28,0,62.097578644999885,,5,62.08670778099986,62.097578644999885,62.097578644999885,0.014021028997376561,63.39958979500079,[0.3283333333333333],[-0.18166666666666667],[1],[0],[0],[1.3124449019996973],['target'],775551,001,2024-10-09_18h32.51.122,VISUALSEARCH,2024.2.1,42.04077773836542,2024-10-09 18h33.04.014668 +0530,
29,0,29,[0.3],[-0.125],[1],[0],[0],[1.5085163170006126],['target'],29,0,29,0,63.44362561299931,,10,63.42807490500127,63.44362561299931,63.44362561299931,0.02833869000096456,64.9370258150011,[0.3],[-0.125],[1],[0],[0],[1.5085163170006126],['target'],775551,001,2024-10-09_18h32.51.122,VISUALSEARCH,2024.2.1,42.04077773836542,2024-10-09 18h33.04.014668 +0530,
30,0,30,[0.295],[-0.06],[1],[0],[0],[1.2069371830002638],['target'],30,0,30,0,64.98097469799905,,10,64.96547308200024,64.98097469799905,64.98097469799905,0.02828690699971048,66.17280936500174,[0.295],[-0.06],[1],[0],[0],[1.2069371830002638],['target'],775551,001,2024-10-09_18h32.51.122,VISUALSEARCH,2024.2.1,42.04077773836542,2024-10-09 18h33.04.014668 +0530,
31,0,31,[0.22166666666666668],[-0.06666666666666667],[1],[0],[0],[1.187751435998507],['target'],31,0,31,0,66.21601214900147,,10,66.20184698600133,66.21601214900147,66.21601214900147,0.028880362002382753,67.38998273100151,[0.22166666666666668],[-0.06666666666666667],[1],[0],[0],[1.187751435998507],['target'],775551,001,2024-10-09_18h32.51.122,VISUALSEARCH,2024.2.1,42.04077773836542,2024-10-09 18h33.04.014668 +0530,
32,0,32,[-0.22],[0.25666666666666665],[1],[0],[0],[2.0440122120016895],['target'],32,0,32,0,67.4331998230009,,10,67.41768577900075,67.4331998230009,67.4331998230009,0.027538807000382803,69.46212282700071,[-0.22],[0.25666666666666665],[1],[0],[0],[2.0440122120016895],['target'],775551,001,2024-10-09_18h32.51.122,VISUALSEARCH,2024.2.1,42.04077773836542,2024-10-09 18h33.04.014668 +0530,
33,0,33,[-0.20166666666666666],[0.3416666666666667],[1],[0],[0],[2.9535595970010036],['target'],33,0,33,0,69.50511775799896,,10,69.49068022899883,69.50511775799896,69.50511775799896,0.02839951799978735,72.44466414300041,[-0.20166666666666666],[0.3416666666666667],[1],[0],[0],[2.9535595970010036],['target'],775551,001,2024-10-09_18h32.51.122,VISUALSEARCH,2024.2.1,42.04077773836542,2024-10-09 18h33.04.014668 +0530,
34,0,34,[-0.3383333333333333],[-0.3016666666666667],[1],[0],[0],[1.7090439509993303],['target'],34,0,34,0,72.49326877799831,,10,72.47725636399991,72.49326877799831,72.49326877799831,0.03237449899825151,74.18666922600096,[-0.3383333333333333],[-0.3016666666666667],[1],[0],[0],[1.7090439509993303],['target'],775551,001,2024-10-09_18h32.51.122,VISUALSEARCH,2024.2.1,42.04077773836542,2024-10-09 18h33.04.014668 +0530,
35,0,35,[0.4633333333333333],[-0.20666666666666667],[1],[0],[0],[1.919902636000188],['target'],35,0,35,0,74.2299934779985,,10,74.21388322400162,74.2299934779985,74.2299934779985,0.027048760999605292,76.13416895000046,[0.4633333333333333],[-0.20666666666666667],[1],[0],[0],[1.919902636000188],['target'],775551,001,2024-10-09_18h32.51.122,VISUALSEARCH,2024.2.1,42.04077773836542,2024-10-09 18h33.04.014668 +0530,
36,0,36,[-0.245],[-0.008333333333333333],[1],[0],[0],[1.1766074789993581],['target'],36,0,36,0,76.15911874000085,,5,76.14835262699853,76.15911874000085,76.15911874000085,0.014021741997567005,77.3254093430005,[-0.245],[-0.008333333333333333],[1],[0],[0],[1.1766074789993581],['target'],775551,001,2024-10-09_18h32.51.122,VISUALSEARCH,2024.2.1,42.04077773836542,2024-10-09 18h33.04.014668 +0530,
37,0,37,[0.16],[-0.005],[1],[0],[0],[1.3771365499997046],['target'],37,0,37,0,77.35013651500049,,5,77.3393725499991,77.35013651500049,77.35013651500049,0.01382351099891821,78.71714689700093,[0.16],[-0.005],[1],[0],[0],[1.3771365499997046],['target'],775551,001,2024-10-09_18h32.51.122,VISUALSEARCH,2024.2.1,42.04077773836542,2024-10-09 18h33.04.014668 +0530,
38,0,38,[-0.3016666666666667],[-0.015],[1],[0],[0],[1.365622646000702],['target'],38,0,38,0,78.74209860400151,,5,78.73230479799895,78.74209860400151,78.74209860400151,0.014946729002986103,80.09839526900032,[-0.3016666666666667],[-0.015],[1],[0],[0],[1.365622646000702],['target'],775551,001,2024-10-09_18h32.51.122,VISUALSEARCH,2024.2.1,42.04077773836542,2024-10-09 18h33.04.014668 +0530,
39,0,39,[0.38],[0.33166666666666667],[1],[0],[0],[1.4110915470009786],['target'],39,0,39,0,80.12377876300161,,5,80.11270649300059,80.12377876300161,80.12377876300161,0.014181135000399081,81.52433436399951,[0.38],[0.33166666666666667],[1],[0],[0],[1.4110915470009786],['target'],775551,001,2024-10-09_18h32.51.122,VISUALSEARCH,2024.2.1,42.04077773836542,2024-10-09 18h33.04.014668 +0530,
40,0,40,[0.07333333333333333],[-0.08166666666666667],[1],[0],[0],[1.364781544001744],['target'],40,0,40,0,81.57158111800163,,5,81.56091251999896,81.57158111800163,81.57158111800163,0.03644490900114761,82.92617376699855,[0.07333333333333333],[-0.08166666666666667],[1],[0],[0],[1.364781544001744],['target'],775551,001,2024-10-09_18h32.51.122,VISUALSEARCH,2024.2.1,42.04077773836542,2024-10-09 18h33.04.014668 +0530,
41,0,41,[-0.415],[-0.2833333333333333],[1],[0],[0],[1.4459736339995288],['target'],41,0,41,0,82.95184077399972,,5,82.94126325600155,82.95184077399972,82.95184077399972,0.01496381800097879,84.3877046580019,[-0.415],[-0.2833333333333333],[1],[0],[0],[1.4459736339995288],['target'],775551,001,2024-10-09_18h32.51.122,VISUALSEARCH,2024.2.1,42.04077773836542,2024-10-09 18h33.04.014668 +0530,
42,0,42,[0.4483333333333333],[-0.17833333333333334],[1],[0],[0],[4.40307399899757],['target'],42,0,42,0,84.41249494500153,,5,84.40224425500128,84.41249494500153,84.41249494500153,0.014405016998352949,88.80578717200115,[0.4483333333333333],[-0.17833333333333334],[1],[0],[0],[4.40307399899757],['target'],775551,001,2024-10-09_18h32.51.122,VISUALSEARCH,2024.2.1,42.04077773836542,2024-10-09 18h33.04.014668 +0530,
43,0,43,[-0.17833333333333334],[-0.32],[1],[0],[0],[1.6884532340009173],['target'],43,0,43,0,88.83144838799853,,5,88.82134805399983,88.83144838799853,88.83144838799853,0.015416690999700222,90.51017690899971,[-0.17833333333333334],[-0.32],[1],[0],[0],[1.6884532340009173],['target'],775551,001,2024-10-09_18h32.51.122,VISUALSEARCH,2024.2.1,42.04077773836542,2024-10-09 18h33.04.014668 +0530,
44,0,44,[-0.06166666666666667],[0.41833333333333333],[1],[0],[0],[1.6126808340013667],['target'],44,0,44,0,90.55289287599953,,10,90.53825187799885,90.55289287599953,90.55289287599953,0.027947804002906196,92.15147051700114,[-0.06166666666666667],[0.41833333333333333],[1],[0],[0],[1.6126808340013667],['target'],775551,001,2024-10-09_18h32.51.122,VISUALSEARCH,2024.2.1,42.04077773836542,2024-10-09 18h33.04.014668 +0530,
45,0,45,[-0.058333333333333334],[0.2833333333333333],[1],[0],[0],[1.053734238998004],['target'],45,0,45,0,92.19400938800027,,10,92.17934600700028,92.19400938800027,92.19400938800027,0.027682489999278914,93.23369139400165,[-0.058333333333333334],[0.2833333333333333],[1],[0],[0],[1.053734238998004],['target'],775551,001,2024-10-09_18h32.51.122,VISUALSEARCH,2024.2.1,42.04077773836542,2024-10-09 18h33.04.014668 +0530,
46,0,46,[0.10333333333333333],[-0.38166666666666665],[1],[0],[0],[2.0552868230006425],['target'],46,0,46,0,93.27788381999926,,10,93.26225926299958,93.27788381999926,93.27788381999926,0.0283446540015575,95.318110264001,[0.10333333333333333],[-0.38166666666666665],[1],[0],[0],[2.0552868230006425],['target'],775551,001,2024-10-09_18h32.51.122,VISUALSEARCH,2024.2.1,42.04077773836542,2024-10-09 18h33.04.014668 +0530,
47,0,47,[0.24666666666666667],[0.07],[1],[0],[0],[1.2100402629985183],['target'],47,0,47,0,95.34375117200034,,5,95.33277011700193,95.34375117200034,95.34375117200034,0.014503859001706587,96.54323118200045,[0.24666666666666667],[0.07],[1],[0],[0],[1.2100402629985183],['target'],775551,001,2024-10-09_18h32.51.122,VISUALSEARCH,2024.2.1,42.04077773836542,2024-10-09 18h33.04.014668 +0530,
48,0,48,[-0.375],[0.11666666666666667],[1],[0],[0],[1.3053174659980868],['target'],48,0,48,0,96.58752238099987,,10,96.57162504499865,96.58752238099987,96.58752238099987,0.028260491002583876,97.87744929900146,[-0.375],[0.11666666666666667],[1],[0],[0],[1.3053174659980868],['target'],775551,001,2024-10-09_18h32.51.122,VISUALSEARCH,2024.2.1,42.04077773836542,2024-10-09 18h33.04.014668 +0530,
49,0,49,[0.023333333333333334],[0.23166666666666666],[1],[0],[0],[1.065807885999675],['target'],49,0,49,0,97.90254756200011,,5,97.8923076079991,97.90254756200011,97.90254756200011,0.01467332199899829,98.95865318900178,[0.023333333333333334],[0.23166666666666666],[1],[0],[0],[1.065807885999675],['target'],775551,001,2024-10-09_18h32.51.122,VISUALSEARCH,2024.2.1,42.04077773836542,2024-10-09 18h33.04.014668 +0530,
50,0,50,[0.043333333333333335],[-0.07166666666666667],[1],[0],[0],[1.2021219440030109],['target'],50,0,50,0,98.98420864400032,,5,98.97355423599947,98.98420864400032,98.98420864400032,0.014771273999940604,100.17611794600089,[0.043333333333333335],[-0.07166666666666667],[1],[0],[0],[1.2021219440030109],['target'],775551,001,2024-10-09_18h32.51.122,VISUALSEARCH,2024.2.1,42.04077773836542,2024-10-09 18h33.04.014668 +0530,
51,0,51,[-0.085],[0.20166666666666666],[1],[0],[0],[1.4653749280005286],['target'],51,0,51,0,100.20136785399882,,5,100.1910554749993,100.20136785399882,100.20136785399882,0.014787047999561764,101.65682728799948,[-0.085],[0.20166666666666666],[1],[0],[0],[1.4653749280005286],['target'],775551,001,2024-10-09_18h32.51.122,VISUALSEARCH,2024.2.1,42.04077773836542,2024-10-09 18h33.04.014668 +0530,
52,0,52,[0.27666666666666667],[0.49],[1],[0],[0],[4.317727861998719],['target'],52,0,52,0,101.69973503399888,,10,101.68437567900037,101.69973503399888,101.69973503399888,0.02741524299926823,106.00253423400136,[0.27666666666666667],[0.49],[1],[0],[0],[4.317727861998719],['target'],775551,001,2024-10-09_18h32.51.122,VISUALSEARCH,2024.2.1,42.04077773836542,2024-10-09 18h33.04.014668 +0530,
53,0,53,[0.18166666666666667],[0.10833333333333334],[1],[0],[0],[1.3810917569971934],['target'],53,0,53,0,106.0280633479997,,5,106.01697037999838,106.0280633479997,106.0280633479997,0.014281196003139485,107.39845605699884,[0.18166666666666667],[0.10833333333333334],[1],[0],[0],[1.3810917569971934],['target'],775551,001,2024-10-09_18h32.51.122,VISUALSEARCH,2024.2.1,42.04077773836542,2024-10-09 18h33.04.014668 +0530,
54,0,54,[0.24333333333333335],[0.11833333333333333],[1],[0],[0],[1.245680963002087],['target'],54,0,54,0,107.42364645500129,,5,107.41273757800082,107.42364645500129,107.42364645500129,0.014152592000755249,108.65883208800005,[0.24333333333333335],[0.11833333333333333],[1],[0],[0],[1.245680963002087],['target'],775551,001,2024-10-09_18h32.51.122,VISUALSEARCH,2024.2.1,42.04077773836542,2024-10-09 18h33.04.014668 +0530,
55,0,55,[-0.23833333333333334],[0.15],[1],[0],[0],[1.5446560620002856],['target'],55,0,55,0,108.68480474099852,,5,108.67388356100128,108.68480474099852,108.68480474099852,0.014921690999472048,110.21906335200038,[-0.23833333333333334],[0.15],[1],[0],[0],[1.5446560620002856],['target'],775551,001,2024-10-09_18h32.51.122,VISUALSEARCH,2024.2.1,42.04077773836542,2024-10-09 18h33.04.014668 +0530,
56,0,56,[0.31833333333333336],[0.155],[1],[0],[0],[1.6962806659976195],['target'],56,0,56,0,110.24454192900157,,5,110.23427463600092,110.24454192900157,110.24454192900157,0.015085558999999193,111.93114573099956,[0.31833333333333336],[0.155],[1],[0],[0],[1.6962806659976195],['target'],775551,001,2024-10-09_18h32.51.122,VISUALSEARCH,2024.2.1,42.04077773836542,2024-10-09 18h33.04.014668 +0530,
57,0,57,[0.15],[0.16833333333333333],[1],[0],[0],[1.1701485269986733],['target'],57,0,57,0,111.97419194300164,,10,111.95890413400048,111.97419194300164,111.97419194300164,0.027537696998479078,113.12949704800121,[0.15],[0.16833333333333333],[1],[0],[0],[1.1701485269986733],['target'],775551,001,2024-10-09_18h32.51.122,VISUALSEARCH,2024.2.1,42.04077773836542,2024-10-09 18h33.04.014668 +0530,
58,0,58,[0.17833333333333334],[0.27666666666666667],[1],[0],[0],[1.1350427990000753],['target'],58,0,58,0,113.15656941799898,,5,113.14517647200046,113.15656941799898,113.15656941799898,0.015502274000027683,114.2809519020011,[0.17833333333333334],[0.27666666666666667],[1],[0],[0],[1.1350427990000753],['target'],775551,001,2024-10-09_18h32.51.122,VISUALSEARCH,2024.2.1,42.04077773836542,2024-10-09 18h33.04.014668 +0530,
59,0,59,[0.28833333333333333],[0.21833333333333332],[1],[0],[0],[1.238896090999333],['target'],59,0,59,0,114.32354448399929,,10,114.30786895100027,114.32354448399929,114.32354448399929,0.02675720500337775,115.54717090600025,[0.28833333333333333],[0.21833333333333332],[1],[0],[0],[1.238896090999333],['target'],775551,001,2024-10-09_18h32.51.122,VISUALSEARCH,2024.2.1,42.04077773836542,2024-10-09 18h33.04.014668 +0530,
60,0,60,[-0.505],[-0.14833333333333334],[1],[0],[0],[1.5463211759997648],['target'],60,0,60,0,115.57265284599998,,5,115.56144009000127,115.57265284599998,115.57265284599998,0.014110357999015832,117.10825167800067,[-0.505],[-0.14833333333333334],[1],[0],[0],[1.5463211759997648],['target'],775551,001,2024-10-09_18h32.51.122,VISUALSEARCH,2024.2.1,42.04077773836542,2024-10-09 18h33.04.014668 +0530,
61,0,61,[0.23666666666666666],[-0.21833333333333332],[1],[0],[0],[1.7979454250016715],['target'],61,0,61,0,117.13462300299943,,5,117.12304051300089,117.13462300299943,117.13462300299943,0.01462335199903464,118.92144855600054,[0.23666666666666666],[-0.21833333333333332],[1],[0],[0],[1.7979454250016715],['target'],775551,001,2024-10-09_18h32.51.122,VISUALSEARCH,2024.2.1,42.04077773836542,2024-10-09 18h33.04.014668 +0530,
62,0,62,[0.14666666666666667],[-0.03666666666666667],[1],[0],[0],[0.9842104009985633],['target'],62,0,62,0,118.9657089100001,,10,118.95065530899956,118.9657089100001,118.9657089100001,0.029064829999697395,119.93538632700074,[0.14666666666666667],[-0.03666666666666667],[1],[0],[0],[0.9842104009985633],['target'],775551,001,2024-10-09_18h32.51.122,VISUALSEARCH,2024.2.1,42.04077773836542,2024-10-09 18h33.04.014668 +0530,
63,0,63,[-0.19166666666666668],[0.32666666666666666],[1],[0],[0],[1.5095399210003961],['target'],63,0,63,0,119.97913086400149,,10,119.9631405250002,119.97913086400149,119.97913086400149,0.02754380599799333,121.47306718099935,[-0.19166666666666668],[0.32666666666666666],[1],[0],[0],[1.5095399210003961],['target'],775551,001,2024-10-09_18h32.51.122,VISUALSEARCH,2024.2.1,42.04077773836542,2024-10-09 18h33.04.014668 +0530,
64,0,64,[0.31333333333333335],[-0.36833333333333335],[1],[0],[0],[1.8896960040001431],['target'],64,0,64,0,121.4995754670017,,5,121.48858396899959,121.4995754670017,121.4995754670017,0.015359498000179883,123.37879840000096,[0.31333333333333335],[-0.36833333333333335],[1],[0],[0],[1.8896960040001431],['target'],775551,001,2024-10-09_18h32.51.122,VISUALSEARCH,2024.2.1,42.04077773836542,2024-10-09 18h33.04.014668 +0530,
65,0,65,[-0.13666666666666666],[-0.018333333333333333],[1],[0],[0],[1.4234078050030803],['target'],65,0,65,0,123.42176774499967,,10,123.40658325000186,123.42176774499967,123.42176774499967,0.027534700002433965,124.83039120499961,[-0.13666666666666666],[-0.018333333333333333],[1],[0],[0],[1.4234078050030803],['target'],775551,001,2024-10-09_18h32.51.122,VISUALSEARCH,2024.2.1,42.04077773836542,2024-10-09 18h33.04.014668 +0530,
66,0,66,[-0.10166666666666667],[0.345],[1],[0],[0],[1.6226963539993449],['target'],66,0,66,0,124.87884980500166,,10,124.86255703799907,124.87884980500166,124.87884980500166,0.03200829100023839,126.48576666000008,[-0.10166666666666667],[0.345],[1],[0],[0],[1.6226963539993449],['target'],775551,001,2024-10-09_18h32.51.122,VISUALSEARCH,2024.2.1,42.04077773836542,2024-10-09 18h33.04.014668 +0530,
67,0,67,[-0.23666666666666666],[0.045],[1],[0],[0],[1.5928074119983648],['target'],67,0,67,0,126.5123003560002,,5,126.50113059700016,126.5123003560002,126.5123003560002,0.01520242100014002,128.09433472399905,[-0.23666666666666666],[0.045],[1],[0],[0],[1.5928074119983648],['target'],775551,001,2024-10-09_18h32.51.122,VISUALSEARCH,2024.2.1,42.04077773836542,2024-10-09 18h33.04.014668 +0530,
68,0,68,[-0.43],[-0.46166666666666667],[1],[0],[0],[1.255001450997952],['target'],68,0,68,0,128.11965924700053,,5,128.10852203100148,128.11965924700053,128.11965924700053,0.014040879999811295,129.36398995299896,[-0.43],[-0.46166666666666667],[1],[0],[0],[1.255001450997952],['target'],775551,001,2024-10-09_18h32.51.122,VISUALSEARCH,2024.2.1,42.04077773836542,2024-10-09 18h33.04.014668 +0530,
69,0,69,[-0.023333333333333334],[-0.35333333333333333],[1],[0],[0],[2.1502219139983936],['target'],69,0,69,0,129.40668692100007,,10,129.39199367000037,129.40668692100007,129.40668692100007,0.02781646599760279,131.5426419840005,[-0.023333333333333334],[-0.35333333333333333],[1],[0],[0],[2.1502219139983936],['target'],775551,001,2024-10-09_18h32.51.122,VISUALSEARCH,2024.2.1,42.04077773836542,2024-10-09 18h33.04.014668 +0530,
70,0,70,[0.40166666666666667],[-0.19166666666666668],[1],[0],[0],[2.335497389998636],['target'],70,0,70,0,131.5870333540006,,10,131.57129012099904,131.5870333540006,131.5870333540006,0.02846118700108491,133.90721412900166,[0.40166666666666667],[-0.19166666666666668],[1],[0],[0],[2.335497389998636],['target'],775551,001,2024-10-09_18h32.51.122,VISUALSEARCH,2024.2.1,42.04077773836542,2024-10-09 18h33.04.014668 +0530,
71,0,71,[-0.17833333333333334],[0.016666666666666666],[1],[0],[0],[1.6554654349965858],['target'],71,0,71,0,133.95029702000102,,10,133.93473131700011,133.95029702000102,133.95029702000102,0.027349668001988903,135.5906057329994,[-0.17833333333333334],[0.016666666666666666],[1],[0],[0],[1.6554654349965858],['target'],775551,001,2024-10-09_18h32.51.122,VISUALSEARCH,2024.2.1,42.04077773836542,2024-10-09 18h33.04.014668 +0530,
72,0,72,[-0.195],[0.028333333333333332],[1],[0],[0],[1.3942918619977718],['target'],72,0,72,0,135.63293676100147,,10,135.61716047699883,135.63293676100147,135.63293676100147,0.0263950640000985,137.01184498599832,[-0.195],[0.028333333333333332],[1],[0],[0],[1.3942918619977718],['target'],775551,001,2024-10-09_18h32.51.122,VISUALSEARCH,2024.2.1,42.04077773836542,2024-10-09 18h33.04.014668 +0530,
73,0,73,[-0.30666666666666664],[0.27],[1],[0],[0],[1.4978013219988497],['target'],73,0,73,0,137.05545009699927,,10,137.03953738199925,137.05545009699927,137.05545009699927,0.02745308399971691,138.53771775199857,[-0.30666666666666664],[0.27],[1],[0],[0],[1.4978013219988497],['target'],775551,001,2024-10-09_18h32.51.122,VISUALSEARCH,2024.2.1,42.04077773836542,2024-10-09 18h33.04.014668 +0530,
74,0,74,[-0.115],[0.08833333333333333],[1],[0],[0],[1.5622312829982548],['target'],74,0,74,0,138.5822298589992,,10,138.56574946800174,138.5822298589992,138.5822298589992,0.0278758740023477,140.12839360400176,[-0.115],[0.08833333333333333],[1],[0],[0],[1.5622312829982548],['target'],775551,001,2024-10-09_18h32.51.122,VISUALSEARCH,2024.2.1,42.04077773836542,2024-10-09 18h33.04.014668 +0530,
75,0,75,[0.24666666666666667],[-0.06833333333333333],[1],[0],[0],[1.4199224900003173],['target'],75,0,75,0,140.17062118299873,,10,140.15517541000008,140.17062118299873,140.17062118299873,0.026606396000715904,141.57572365599844,[0.24666666666666667],[-0.06833333333333333],[1],[0],[0],[1.4199224900003173],['target'],775551,001,2024-10-09_18h32.51.122,VISUALSEARCH,2024.2.1,42.04077773836542,2024-10-09 18h33.04.014668 +0530,
76,0,76,[0.39666666666666667],[-0.09333333333333334],[1],[0],[0],[1.3323939830006566],['target'],76,0,76,0,141.60451584900147,,5,141.59329598100157,141.60451584900147,141.60451584900147,0.017317738002020633,142.92612128399924,[0.39666666666666667],[-0.09333333333333334],[1],[0],[0],[1.3323939830006566],['target'],775551,001,2024-10-09_18h32.51.122,VISUALSEARCH,2024.2.1,42.04077773836542,2024-10-09 18h33.04.014668 +0530,
77,0,77,[0.028333333333333332],[-0.27],[1],[0],[0],[1.783187730001373],['target'],77,0,77,0,142.96854734299995,,10,142.95393479400082,142.96854734299995,142.96854734299995,0.02768683500107727,144.7374927710007,[0.028333333333333332],[-0.27],[1],[0],[0],[1.783187730001373],['target'],775551,001,2024-10-09_18h32.51.122,VISUALSEARCH,2024.2.1,42.04077773836542,2024-10-09 18h33.04.014668 +0530,
78,0,78,[0.395],[-0.24166666666666667],[1],[0],[0],[1.6260905119997915],['target'],78,0,78,0,144.78102534500067,,10,144.76528899099867,144.78102534500067,144.78102534500067,0.02763741899980232,146.39179957500164,[0.395],[-0.24166666666666667],[1],[0],[0],[1.6260905119997915],['target'],775551,001,2024-10-09_18h32.51.122,VISUALSEARCH,2024.2.1,42.04077773836542,2024-10-09 18h33.04.014668 +0530,
79,0,79,[0.43],[0.13666666666666666],[1],[0],[0],[1.3250967280000623],['target'],79,0,79,0,146.41770969500067,,5,146.40697052299947,146.41770969500067,146.41770969500067,0.014995861001807498,147.73257641799864,[0.43],[0.13666666666666666],[1],[0],[0],[1.3250967280000623],['target'],775551,001,2024-10-09_18h32.51.122,VISUALSEARCH,2024.2.1,42.04077773836542,2024-10-09 18h33.04.014668 +0530,
80,0,80,[-0.21166666666666667],[0.18833333333333332],[1],[0],[0],[1.9692147390014725],['target'],80,0,80,0,147.75750269700075,,5,147.74698834000083,147.75750269700075,147.75750269700075,0.014260664000175893,149.71661145500184,[-0.21166666666666667],[0.18833333333333332],[1],[0],[0],[1.9692147390014725],['target'],775551,001,2024-10-09_18h32.51.122,VISUALSEARCH,2024.2.1,42.04077773836542,2024-10-09 18h33.04.014668 +0530,
81,0,81,[-0.31],[0.2966666666666667],[1],[0],[0],[1.0903232210002898],['target'],81,0,81,0,149.74232113000107,,5,149.73071695199906,149.74232113000107,149.74232113000107,0.013967267001135042,150.82141782799954,[-0.31],[0.2966666666666667],[1],[0],[0],[1.0903232210002898],['target'],775551,001,2024-10-09_18h32.51.122,VISUALSEARCH,2024.2.1,42.04077773836542,2024-10-09 18h33.04.014668 +0530,
82,0,82,[-0.4],[0.056666666666666664],[1],[0],[0],[1.0696018999988155],['target'],82,0,82,0,150.86516071400183,,10,150.8500658209996,150.86516071400183,150.86516071400183,0.02852187399912509,151.92022253400137,[-0.4],[0.056666666666666664],[1],[0],[0],[1.0696018999988155],['target'],775551,001,2024-10-09_18h32.51.122,VISUALSEARCH,2024.2.1,42.04077773836542,2024-10-09 18h33.04.014668 +0530,
83,0,83,[0.3883333333333333],[-0.03],[1],[0],[0],[1.4380844099978276],['target'],83,0,83,0,151.9463752240008,,5,151.93501622999975,151.9463752240008,151.9463752240008,0.014633547998528229,153.37351410300107,[0.3883333333333333],[-0.03],[1],[0],[0],[1.4380844099978276],['target'],775551,001,2024-10-09_18h32.51.122,VISUALSEARCH,2024.2.1,42.04077773836542,2024-10-09 18h33.04.014668 +0530,
84,0,84,[-0.07166666666666667],[0.23166666666666666],[1],[0],[0],[1.4578835600004822],['target'],84,0,84,0,153.41704845200002,,10,153.4020383520001,153.41704845200002,153.41704845200002,0.02839177500209189,154.86030615100026,[-0.07166666666666667],[0.23166666666666666],[1],[0],[0],[1.4578835600004822],['target'],775551,001,2024-10-09_18h32.51.122,VISUALSEARCH,2024.2.1,42.04077773836542,2024-10-09 18h33.04.014668 +0530,
85,0,85,[0.4166666666666667],[0.10833333333333334],[1],[0],[0],[1.8162856220005779],['target'],85,0,85,0,154.90400718399906,,10,154.8884764450013,154.90400718399906,154.90400718399906,0.028010150999762118,156.70530890100054,[0.4166666666666667],[0.10833333333333334],[1],[0],[0],[1.8162856220005779],['target'],775551,001,2024-10-09_18h32.51.122,VISUALSEARCH,2024.2.1,42.04077773836542,2024-10-09 18h33.04.014668 +0530,
86,0,86,[-0.06333333333333334],[-0.34],[1],[0],[0],[1.3833313149989408],['target'],86,0,86,0,156.7303700670018,,5,156.71910352199848,156.7303700670018,156.7303700670018,0.013637526000820799,158.10311979299877,[-0.06333333333333334],[-0.34],[1],[0],[0],[1.3833313149989408],['target'],775551,001,2024-10-09_18h32.51.122,VISUALSEARCH,2024.2.1,42.04077773836542,2024-10-09 18h33.04.014668 +0530,
87,0,87,[-0.165],[-0.028333333333333332],[1],[0],[0],[0.9899135250016116],['target'],87,0,87,0,158.1320572850018,,5,158.1201930999996,158.1320572850018,158.1320572850018,0.016849081999680493,159.1104931129994,[-0.165],[-0.028333333333333332],[1],[0],[0],[0.9899135250016116],['target'],775551,001,2024-10-09_18h32.51.122,VISUALSEARCH,2024.2.1,42.04077773836542,2024-10-09 18h33.04.014668 +0530,
88,0,88,[0.16],[0.04],[1],[0],[0],[1.2533498390002933],['target'],88,0,88,0,159.15288546100055,,10,159.13783395599967,159.15288546100055,159.15288546100055,0.027207777002331568,160.39165643399974,[0.16],[0.04],[1],[0],[0],[1.2533498390002933],['target'],775551,001,2024-10-09_18h32.51.122,VISUALSEARCH,2024.2.1,42.04077773836542,2024-10-09 18h33.04.014668 +0530,
89,0,89,[0.49166666666666664],[0.29],[1],[0],[0],[1.30485993199909],['target'],89,0,89,0,160.41855580600168,,5,160.40717919899907,160.41855580600168,160.41855580600168,0.015336918000684818,161.712478802001,[0.49166666666666664],[0.29],[1],[0],[0],[1.30485993199909],['target'],775551,001,2024-10-09_18h32.51.122,VISUALSEARCH,2024.2.1,42.04077773836542,2024-10-09 18h33.04.014668 +0530,
90,0,90,[0.12],[-0.13666666666666666],[1],[0],[0],[1.9822467539997888],['target'],90,0,90,0,161.7555409500019,,10,161.74026884900013,161.7555409500019,161.7555409500019,0.02765580699997372,163.72292736500094,[0.12],[-0.13666666666666666],[1],[0],[0],[1.9822467539997888],['target'],775551,001,2024-10-09_18h32.51.122,VISUALSEARCH,2024.2.1,42.04077773836542,2024-10-09 18h33.04.014668 +0530,
91,0,91,[-0.44],[-0.2633333333333333],[1],[0],[0],[1.5819496660005825],['target'],91,0,91,0,163.74884898899836,,5,163.73751327799982,163.74884898899836,163.74884898899836,0.014408097998966696,165.31990321299963,[-0.44],[-0.2633333333333333],[1],[0],[0],[1.5819496660005825],['target'],775551,001,2024-10-09_18h32.51.122,VISUALSEARCH,2024.2.1,42.04077773836542,2024-10-09 18h33.04.014668 +0530,
92,0,92,[0.46166666666666667],[-0.07166666666666667],[1],[0],[0],[1.3646704580023652],['target'],92,0,92,0,165.34553409799992,,5,165.33483582500048,165.34553409799992,165.34553409799992,0.014801203000388341,166.69995324000047,[0.46166666666666667],[-0.07166666666666667],[1],[0],[0],[1.3646704580023652],['target'],775551,001,2024-10-09_18h32.51.122,VISUALSEARCH,2024.2.1,42.04077773836542,2024-10-09 18h33.04.014668 +0530,
93,0,93,[-0.021666666666666667],[0.23333333333333334],[1],[0],[0],[1.1951274459970591],['target'],93,0,93,0,166.72508756200114,,5,166.71486350399937,166.72508756200114,166.72508756200114,0.014761902999453014,167.9103979499996,[-0.021666666666666667],[0.23333333333333334],[1],[0],[0],[1.1951274459970591],['target'],775551,001,2024-10-09_18h32.51.122,VISUALSEARCH,2024.2.1,42.04077773836542,2024-10-09 18h33.04.014668 +0530,
94,0,94,[0.018333333333333333],[-0.39],[1],[0],[0],[2.004824912000913],['target'],94,0,94,0,167.95421375300066,,10,167.93858616999933,167.95421375300066,167.95421375300066,0.028058973999577574,169.94404709599985,[0.018333333333333333],[-0.39],[1],[0],[0],[2.004824912000913],['target'],775551,001,2024-10-09_18h32.51.122,VISUALSEARCH,2024.2.1,42.04077773836542,2024-10-09 18h33.04.014668 +0530,
95,0,95,[0.24833333333333332],[0.36333333333333334],[1],[0],[0],[1.5226217370000086],['target'],95,0,95,0,169.987652101001,,10,169.97191571599978,169.987652101001,169.987652101001,0.027701461996912258,171.49511251600052,[0.24833333333333332],[0.36333333333333334],[1],[0],[0],[1.5226217370000086],['target'],775551,001,2024-10-09_18h32.51.122,VISUALSEARCH,2024.2.1,42.04077773836542,2024-10-09 18h33.04.014668 +0530,
96,0,96,[0.11333333333333333],[-0.3933333333333333],[1],[0],[0],[1.8995829209998192],['target'],96,0,96,0,171.53787283899874,,10,171.522178438001,171.53787283899874,171.53787283899874,0.0268924239971966,173.42218403900188,[0.11333333333333333],[-0.3933333333333333],[1],[0],[0],[1.8995829209998192],['target'],775551,001,2024-10-09_18h32.51.122,VISUALSEARCH,2024.2.1,42.04077773836542,2024-10-09 18h33.04.014668 +0530,
97,0,97,[-0.15166666666666667],[-0.15333333333333332],[1],[0],[0],[1.3541751689990633],['target'],97,0,97,0,173.46574580599918,,10,173.44987118299832,173.46574580599918,173.46574580599918,0.02750574499805225,174.80442948899872,[-0.15166666666666667],[-0.15333333333333332],[1],[0],[0],[1.3541751689990633],['target'],775551,001,2024-10-09_18h32.51.122,VISUALSEARCH,2024.2.1,42.04077773836542,2024-10-09 18h33.04.014668 +0530,
98,0,98,[0.07666666666666666],[0.115],[1],[0],[0],[1.1582337450017803],['target'],98,0,98,0,174.84753577599986,,10,174.83254609100186,174.84753577599986,174.84753577599986,0.027951822001341498,175.99121216300045,[0.07666666666666666],[0.115],[1],[0],[0],[1.1582337450017803],['target'],775551,001,2024-10-09_18h32.51.122,VISUALSEARCH,2024.2.1,42.04077773836542,2024-10-09 18h33.04.014668 +0530,
99,0,99,[-0.15833333333333333],[0.025],[1],[0],[0],[1.0290963999977976],['target'],99,0,99,0,176.03675748300157,,10,176.01988882500154,176.03675748300157,176.03675748300157,0.028496372000518022,177.04995130899988,[-0.15833333333333333],[0.025],[1],[0],[0],[1.0290963999977976],['target'],775551,001,2024-10-09_18h32.51.122,VISUALSEARCH,2024.2.1,42.04077773836542,2024-10-09 18h33.04.014668 +0530,
100,0,100,[0.4533333333333333],[-0.32],[1],[0],[0],[1.76094396100234],['target'],100,0,100,0,177.09360377900157,,10,177.07749243999933,177.09360377900157,177.09360377900157,0.027166636999027105,178.83883541500109,[0.4533333333333333],[-0.32],[1],[0],[0],[1.76094396100234],['target'],775551,001,2024-10-09_18h32.51.122,VISUALSEARCH,2024.2.1,42.04077773836542,2024-10-09 18h33.04.014668 +0530,
101,0,101,[0.29833333333333334],[-0.39],[1],[0],[0],[1.6738724269998784],['target'],101,0,101,0,178.8833190160003,,10,178.86791028099833,178.8833190160003,178.8833190160003,0.028881214999273652,180.54232499999853,[0.29833333333333334],[-0.39],[1],[0],[0],[1.6738724269998784],['target'],775551,001,2024-10-09_18h32.51.122,VISUALSEARCH,2024.2.1,42.04077773836542,2024-10-09 18h33.04.014668 +0530,
102,0,102,[0.25666666666666665],[0.305],[1],[0],[0],[1.3909532129982836],['target'],102,0,102,0,180.56774414399842,,5,180.55671316699954,180.56774414399842,180.56774414399842,0.014229604999854928,181.94812671600084,[0.25666666666666665],[0.305],[1],[0],[0],[1.3909532129982836],['target'],775551,001,2024-10-09_18h32.51.122,VISUALSEARCH,2024.2.1,42.04077773836542,2024-10-09 18h33.04.014668 +0530,
103,0,103,[-0.22333333333333333],[-0.255],[1],[0],[0],[1.3485749600004056],['target'],103,0,103,0,181.97388353000133,,5,181.9626917630012,181.97388353000133,181.97388353000133,0.014342160000524018,183.31165813199914,[-0.22333333333333333],[-0.255],[1],[0],[0],[1.3485749600004056],['target'],775551,001,2024-10-09_18h32.51.122,VISUALSEARCH,2024.2.1,42.04077773836542,2024-10-09 18h33.04.014668 +0530,
104,0,104,[0.37666666666666665],[0.05],[1],[0],[0],[1.1932729710024432],['target'],104,0,104,0,183.33688775200062,,5,183.32668489700154,183.33688775200062,183.33688775200062,0.014900341000611661,184.52063727900168,[0.37666666666666665],[0.05],[1],[0],[0],[1.1932729710024432],['target'],775551,001,2024-10-09_18h32.51.122,VISUALSEARCH,2024.2.1,42.04077773836542,2024-10-09 18h33.04.014668 +0530,
105,0,105,[0.12333333333333334],[0.26],[1],[0],[0],[1.2327309390020673],['target'],105,0,105,0,184.56353084100192,,10,184.5481518509987,184.56353084100192,184.56353084100192,0.027372779997676844,185.78139467100118,[0.12333333333333334],[0.26],[1],[0],[0],[1.2327309390020673],['target'],775551,001,2024-10-09_18h32.51.122,VISUALSEARCH,2024.2.1,42.04077773836542,2024-10-09 18h33.04.014668 +0530,
106,0,106,[-0.16333333333333333],[-0.4483333333333333],[1],[0],[0],[1.9793694869986211],['target'],106,0,106,0,185.8243472139984,,10,185.809070102001,185.8243472139984,185.8243472139984,0.027487397997902008,187.7888713249995,[-0.16333333333333333],[-0.4483333333333333],[1],[0],[0],[1.9793694869986211],['target'],775551,001,2024-10-09_18h32.51.122,VISUALSEARCH,2024.2.1,42.04077773836542,2024-10-09 18h33.04.014668 +0530,
107,0,107,[-0.43666666666666665],[-0.2633333333333333],[1],[0],[0],[2.354632443999435],['target'],107,0,107,0,187.84035633800158,,10,187.81993401699947,187.84035633800158,187.84035633800158,0.030893090999597916,190.17493809799998,[-0.43666666666666665],[-0.2633333333333333],[1],[0],[0],[2.354632443999435],['target'],775551,001,2024-10-09_18h32.51.122,VISUALSEARCH,2024.2.1,42.04077773836542,2024-10-09 18h33.04.014668 +0530,
108,0,108,[0.4166666666666667],[-0.41333333333333333],[1],[0],[0],[2.018144202000258],['target'],108,0,108,0,190.2009139719994,,5,190.18936716299868,190.2009139719994,190.2009139719994,0.014244965997932013,192.20792787000028,[0.4166666666666667],[-0.41333333333333333],[1],[0],[0],[2.018144202000258],['target'],775551,001,2024-10-09_18h32.51.122,VISUALSEARCH,2024.2.1,42.04077773836542,2024-10-09 18h33.04.014668 +0530,
109,0,109,[-0.27],[-0.3333333333333333],[1],[0],[0],[1.4567213650007034],['target'],109,0,109,0,192.2526312129994,,10,192.2369928670014,192.2526312129994,192.2526312129994,0.028931433000252582,193.6941495309984,[-0.27],[-0.3333333333333333],[1],[0],[0],[1.4567213650007034],['target'],775551,001,2024-10-09_18h32.51.122,VISUALSEARCH,2024.2.1,42.04077773836542,2024-10-09 18h33.04.014668 +0530,
110,0,110,[0.008333333333333333],[-0.255],[1],[0],[0],[1.3306521509985032],['target'],110,0,110,0,193.72124765699846,,5,193.7098125550001,193.72124765699846,193.72124765699846,0.015482379996683449,195.04085510799996,[0.008333333333333333],[-0.255],[1],[0],[0],[1.3306521509985032],['target'],775551,001,2024-10-09_18h32.51.122,VISUALSEARCH,2024.2.1,42.04077773836542,2024-10-09 18h33.04.014668 +0530,
111,0,111,[-0.015],[0.18166666666666667],[1],[0],[0],[1.1414187890004541],['target'],111,0,111,0,195.08343344999957,,10,195.068166508001,195.08343344999957,195.08343344999957,0.027189705000637332,196.20999106900126,[-0.015],[0.18166666666666667],[1],[0],[0],[1.1414187890004541],['target'],775551,001,2024-10-09_18h32.51.122,VISUALSEARCH,2024.2.1,42.04077773836542,2024-10-09 18h33.04.014668 +0530,
112,0,112,[0.4866666666666667],[-0.26],[1],[0],[0],[2.00920332899841],['target'],112,0,112,0,196.252983751001,,10,196.23730781099948,196.252983751001,196.252983751001,0.027160090998222586,198.2471211459997,[0.4866666666666667],[-0.26],[1],[0],[0],[2.00920332899841],['target'],775551,001,2024-10-09_18h32.51.122,VISUALSEARCH,2024.2.1,42.04077773836542,2024-10-09 18h33.04.014668 +0530,
113,0,113,[0.3333333333333333],[0.34833333333333333],[1],[0],[0],[1.4623284170011175],['target'],113,0,113,0,198.29283008600032,,10,198.2749425969996,198.29283008600032,198.29283008600032,0.027622995999990962,199.7377281299996,[0.3333333333333333],[0.34833333333333333],[1],[0],[0],[1.4623284170011175],['target'],775551,001,2024-10-09_18h32.51.122,VISUALSEARCH,2024.2.1,42.04077773836542,2024-10-09 18h33.04.014668 +0530,
114,0,114,[-0.42],[-0.043333333333333335],[1],[0],[0],[1.274657872003445],['target'],114,0,114,0,199.76489867000055,,5,199.75330658800158,199.76489867000055,199.76489867000055,0.015422289001435274,201.0284544669994,[-0.42],[-0.043333333333333335],[1],[0],[0],[1.274657872003445],['target'],775551,001,2024-10-09_18h32.51.122,VISUALSEARCH,2024.2.1,42.04077773836542,2024-10-09 18h33.04.014668 +0530,
115,0,115,[-0.24166666666666667],[0.29333333333333333],[1],[0],[0],[1.1732676639985584],['target'],115,0,115,0,201.07133195799906,,10,201.0558885999999,201.07133195799906,201.07133195799906,0.027312918999086833,202.22959246900064,[-0.24166666666666667],[0.29333333333333333],[1],[0],[0],[1.1732676639985584],['target'],775551,001,2024-10-09_18h32.51.122,VISUALSEARCH,2024.2.1,42.04077773836542,2024-10-09 18h33.04.014668 +0530,
116,0,116,[0.215],[0.12333333333333334],[1],[0],[0],[1.0985380209967843],['target'],116,0,116,0,202.25613331600107,,5,202.24478207100037,202.25613331600107,202.25613331600107,0.01503115000014077,203.34380959099872,[0.215],[0.12333333333333334],[1],[0],[0],[1.0985380209967843],['target'],775551,001,2024-10-09_18h32.51.122,VISUALSEARCH,2024.2.1,42.04077773836542,2024-10-09 18h33.04.014668 +0530,
117,0,117,[0.02666666666666667],[0.27],[1],[0],[0],[1.902068359999248],['target'],117,0,117,0,203.38732320399868,,10,203.3716856659994,203.38732320399868,203.38732320399868,0.0277442010010418,205.27418267699977,[0.02666666666666667],[0.27],[1],[0],[0],[1.902068359999248],['target'],775551,001,2024-10-09_18h32.51.122,VISUALSEARCH,2024.2.1,42.04077773836542,2024-10-09 18h33.04.014668 +0530,
118,0,118,[0.13],[-0.14],[1],[0],[0],[1.146505579999939],['target'],118,0,118,0,205.29970497999966,,5,205.28818951100038,205.29970497999966,205.29970497999966,0.013825185000314377,206.43509395900037,[0.13],[-0.14],[1],[0],[0],[1.146505579999939],['target'],775551,001,2024-10-09_18h32.51.122,VISUALSEARCH,2024.2.1,42.04077773836542,2024-10-09 18h33.04.014668 +0530,
119,0,119,[0.455],[0.16],[1],[0],[0],[1.9080539240021608],['target'],119,0,119,0,206.4773745450002,,10,206.46217544899991,206.4773745450002,206.4773745450002,0.026962373998685507,208.37066787300137,[0.455],[0.16],[1],[0],[0],[1.9080539240021608],['target'],775551,001,2024-10-09_18h32.51.122,VISUALSEARCH,2024.2.1,42.04077773836542,2024-10-09 18h33.04.014668 +0530,
120,0,120,[0.205],[0.3233333333333333],[1],[0],[0],[1.0714326320012333],['target'],120,0,120,0,208.395914146,,5,208.38501511399954,208.395914146,208.395914146,0.014189505000103964,209.45684083800006,[0.205],[0.3233333333333333],[1],[0],[0],[1.0714326320012333],['target'],775551,001,2024-10-09_18h32.51.122,VISUALSEARCH,2024.2.1,42.04077773836542,2024-10-09 18h33.04.014668 +0530,
121,0,121,[0.2833333333333333],[0.43833333333333335],[1],[0],[0],[2.014980367002863],['target'],121,0,121,0,209.48321130299882,,5,209.47158640899943,209.48321130299882,209.48321130299882,0.014569676000974141,211.48695612699885,[0.2833333333333333],[0.43833333333333335],[1],[0],[0],[2.014980367002863],['target'],775551,001,2024-10-09_18h32.51.122,VISUALSEARCH,2024.2.1,42.04077773836542,2024-10-09 18h33.04.014668 +0530,
122,0,122,[0.2833333333333333],[0.43833333333333335],[1],[0],[0],[0.12995657899955404],[None],122,0,122,0,211.5120994960016,,5,211.50238969999918,211.5120994960016,211.5120994960016,0.015309466998587595,211.63283940600013,[0.2833333333333333],[0.43833333333333335],[1],[0],[0],[0.12995657899955404],[None],775551,001,2024-10-09_18h32.51.122,VISUALSEARCH,2024.2.1,42.04077773836542,2024-10-09 18h33.04.014668 +0530,
123,0,123,[0.4],[0.07333333333333333],[1],[0],[0],[1.5150647500013292],[None],123,0,123,0,211.65820976599935,,5,211.64795657300056,211.65820976599935,211.65820976599935,0.014994301000115229,213.16339080200123,[0.4],[0.07333333333333333],[1],[0],[0],[1.5150647500013292],[None],775551,001,2024-10-09_18h32.51.122,VISUALSEARCH,2024.2.1,42.04077773836542,2024-10-09 18h33.04.014668 +0530,
124,0,124,[-0.20166666666666666],[-0.31],[1],[0],[0],[1.6078010100027313],['target'],124,0,124,0,213.20642775899978,,10,213.1912933800013,213.20642775899978,213.20642775899978,0.02777631999924779,214.7996244399983,[-0.20166666666666666],[-0.31],[1],[0],[0],[1.6078010100027313],['target'],775551,001,2024-10-09_18h32.51.122,VISUALSEARCH,2024.2.1,42.04077773836542,2024-10-09 18h33.04.014668 +0530,
125,0,125,[0.18333333333333332],[-0.08833333333333333],[1],[0],[0],[1.213689003001491],['target'],125,0,125,0,214.84148717000062,,10,214.82635980299892,214.84148717000062,214.84148717000062,0.026581638998322887,216.04041735600185,[0.18333333333333332],[-0.08833333333333333],[1],[0],[0],[1.213689003001491],['target'],775551,001,2024-10-09_18h32.51.122,VISUALSEARCH,2024.2.1,42.04077773836542,2024-10-09 18h33.04.014668 +0530,
126,0,126,[0.32166666666666666],[-0.23333333333333334],[1],[0],[0],[1.3795034460017632],['target'],126,0,126,0,216.06804978999935,,5,216.05587572399963,216.06804978999935,216.06804978999935,0.015286720998119563,217.435915525999,[0.32166666666666666],[-0.23333333333333334],[1],[0],[0],[1.3795034460017632],['target'],775551,001,2024-10-09_18h32.51.122,VISUALSEARCH,2024.2.1,42.04077773836542,2024-10-09 18h33.04.014668 +0530,
127,0,127,[0.09],[0.07],[1],[0],[0],[1.2301779939989501],['target'],127,0,127,0,217.4800558479983,,10,217.46375955799886,217.4800558479983,217.4800558479983,0.02767384699836839,218.69450239599973,[0.09],[0.07],[1],[0],[0],[1.2301779939989501],['target'],775551,001,2024-10-09_18h32.51.122,VISUALSEARCH,2024.2.1,42.04077773836542,2024-10-09 18h33.04.014668 +0530,
128,0,128,[0.4],[-0.44166666666666665],[1],[0],[0],[2.275493818000541],['target'],128,0,128,0,218.7375561330009,,10,218.72192565599835,218.7375561330009,218.7375561330009,0.027269988997431938,220.99792213199908,[0.4],[-0.44166666666666665],[1],[0],[0],[2.275493818000541],['target'],775551,001,2024-10-09_18h32.51.122,VISUALSEARCH,2024.2.1,42.04077773836542,2024-10-09 18h33.04.014668 +0530,
129,0,129,[-0.43166666666666664],[0.11833333333333333],[1],[0],[0],[1.6757475289996364],['target'],129,0,129,0,221.02376629100036,,5,221.01308413999868,221.02376629100036,221.02376629100036,0.015002874002675526,222.68933249399925,[-0.43166666666666664],[0.11833333333333333],[1],[0],[0],[1.6757475289996364],['target'],775551,001,2024-10-09_18h32.51.122,VISUALSEARCH,2024.2.1,42.04077773836542,2024-10-09 18h33.04.014668 +0530,
130,0,130,[0.016666666666666666],[0.16333333333333333],[1],[0],[0],[0.9913609160030319],['target'],130,0,130,0,222.71570742800031,,5,222.70436371599862,222.71570742800031,222.71570742800031,0.014903240000421647,223.696116436,[0.016666666666666666],[0.16333333333333333],[1],[0],[0],[0.9913609160030319],['target'],775551,001,2024-10-09_18h32.51.122,VISUALSEARCH,2024.2.1,42.04077773836542,2024-10-09 18h33.04.014668 +0530,
131,0,131,[-0.12666666666666668],[0.215],[1],[0],[0],[1.0032481579983141],['target'],131,0,131,0,223.73971200600135,,10,223.72434292699836,223.73971200600135,223.73971200600135,0.02810448600212112,224.72798651199992,[-0.12666666666666668],[0.215],[1],[0],[0],[1.0032481579983141],['target'],775551,001,2024-10-09_18h32.51.122,VISUALSEARCH,2024.2.1,42.04077773836542,2024-10-09 18h33.04.014668 +0530,
132,0,132,[0.2783333333333333],[-0.10666666666666667],[1],[0],[0],[1.456815576999361],['target'],132,0,132,0,224.77147525400142,,10,224.75563601999966,224.77147525400142,224.77147525400142,0.0274986539989186,226.21287993200167,[0.2783333333333333],[-0.10666666666666667],[1],[0],[0],[1.456815576999361],['target'],775551,001,2024-10-09_18h32.51.122,VISUALSEARCH,2024.2.1,42.04077773836542,2024-10-09 18h33.04.014668 +0530,
133,0,133,[0.09166666666666666],[0.4116666666666667],[1],[0],[0],[1.5914358160007396],['target'],133,0,133,0,226.2563721990009,,10,226.24101504400096,226.2563721990009,226.2563721990009,0.027978568999969866,227.83283554000081,[0.09166666666666666],[0.4116666666666667],[1],[0],[0],[1.5914358160007396],['target'],775551,001,2024-10-09_18h32.51.122,VISUALSEARCH,2024.2.1,42.04077773836542,2024-10-09 18h33.04.014668 +0530,
134,0,134,[0.30333333333333334],[-0.19333333333333333],[1],[0],[0],[2.023655281998799],['target'],134,0,134,0,227.8774339039992,,10,227.86151712900028,227.8774339039992,227.8774339039992,0.028539034999994328,229.8856347610017,[0.30333333333333334],[-0.19333333333333333],[1],[0],[0],[2.023655281998799],['target'],775551,001,2024-10-09_18h32.51.122,VISUALSEARCH,2024.2.1,42.04077773836542,2024-10-09 18h33.04.014668 +0530,
135,0,135,[0.45],[-0.06],[1],[0],[0],[1.697699948999798],['target'],135,0,135,0,229.92991822800104,,10,229.9145926409983,229.92991822800104,229.92991822800104,0.028778808999049943,231.612810644001,[0.45],[-0.06],[1],[0],[0],[1.697699948999798],['target'],775551,001,2024-10-09_18h32.51.122,VISUALSEARCH,2024.2.1,42.04077773836542,2024-10-09 18h33.04.014668 +0530,
136,0,136,[-0.4083333333333333],[0.3016666666666667],[1],[0],[0],[1.4622324800002389],['target'],136,0,136,0,231.6391876689995,,5,231.6282188160003,231.6391876689995,231.6391876689995,0.015255867001542356,233.0909554940008,[-0.4083333333333333],[0.3016666666666667],[1],[0],[0],[1.4622324800002389],['target'],775551,001,2024-10-09_18h32.51.122,VISUALSEARCH,2024.2.1,42.04077773836542,2024-10-09 18h33.04.014668 +0530,
137,0,137,[0.11333333333333333],[0.3333333333333333],[1],[0],[0],[1.0872003520016733],['target'],137,0,137,0,233.13305575599952,,10,233.11803249500008,233.13305575599952,233.13305575599952,0.02695275099904393,234.20582169800036,[0.11333333333333333],[0.3333333333333333],[1],[0],[0],[1.0872003520016733],['target'],775551,001,2024-10-09_18h32.51.122,VISUALSEARCH,2024.2.1,42.04077773836542,2024-10-09 18h33.04.014668 +0530,
138,0,138,[0.25333333333333335],[-0.06],[1],[0],[0],[1.2660595380002633],['target'],138,0,138,0,234.24870227800056,,10,234.23338686100033,234.24870227800056,234.24870227800056,0.027408519003074616,235.49986533999981,[0.25333333333333335],[-0.06],[1],[0],[0],[1.2660595380002633],['target'],775551,001,2024-10-09_18h32.51.122,VISUALSEARCH,2024.2.1,42.04077773836542,2024-10-09 18h33.04.014668 +0530,
139,0,139,[-0.2866666666666667],[0.06666666666666667],[1],[0],[0],[1.6089315809986147],['target'],139,0,139,0,235.54322405199855,,10,235.52785770099945,235.54322405199855,235.54322405199855,0.02782255399870337,237.1372331950006,[-0.2866666666666667],[0.06666666666666667],[1],[0],[0],[1.6089315809986147],['target'],775551,001,2024-10-09_18h32.51.122,VISUALSEARCH,2024.2.1,42.04077773836542,2024-10-09 18h33.04.014668 +0530,
140,0,140,[-0.2733333333333333],[-0.435],[1],[0],[0],[1.9450778589998663],['target'],140,0,140,0,237.1636480019988,,5,237.15189532099976,237.1636480019988,237.1636480019988,0.014366063998750178,239.09743434199845,[-0.2733333333333333],[-0.435],[1],[0],[0],[1.9450778589998663],['target'],775551,001,2024-10-09_18h32.51.122,VISUALSEARCH,2024.2.1,42.04077773836542,2024-10-09 18h33.04.014668 +0530,
141,0,141,[-0.115],[-0.315],[1],[0],[0],[1.319087159998162],['target'],141,0,141,0,239.12331079200158,,5,239.11166529600087,239.12331079200158,239.12331079200158,0.014095839000219712,240.4313148580004,[-0.115],[-0.315],[1],[0],[0],[1.319087159998162],['target'],775551,001,2024-10-09_18h32.51.122,VISUALSEARCH,2024.2.1,42.04077773836542,2024-10-09 18h33.04.014668 +0530,
142,0,142,[-0.165],[0.44333333333333336],[1],[0],[0],[2.3574135019989626],['target'],142,0,142,0,240.47632918499949,,10,240.46065632599857,240.47632918499949,240.47632918499949,0.029158696001104545,242.81844991899925,[-0.165],[0.44333333333333336],[1],[0],[0],[2.3574135019989626],['target'],775551,001,2024-10-09_18h32.51.122,VISUALSEARCH,2024.2.1,42.04077773836542,2024-10-09 18h33.04.014668 +0530,
143,0,143,[-0.3983333333333333],[0.345],[1],[0],[0],[1.2265996020032617],['target'],143,0,143,0,242.8434392470008,,5,242.83289804499873,242.8434392470008,242.8434392470008,0.014268720002291957,244.05991484400147,[-0.3983333333333333],[0.345],[1],[0],[0],[1.2265996020032617],['target'],775551,001,2024-10-09_18h32.51.122,VISUALSEARCH,2024.2.1,42.04077773836542,2024-10-09 18h33.04.014668 +0530,
144,0,144,[-0.075],[0.10833333333333334],[1],[0],[0],[1.1033133399978396],['target'],144,0,144,0,244.08563960500032,,5,244.07434600399938,244.08563960500032,244.08563960500032,0.01430268299736781,245.17812971700187,[-0.075],[0.10833333333333334],[1],[0],[0],[1.1033133399978396],['target'],775551,001,2024-10-09_18h32.51.122,VISUALSEARCH,2024.2.1,42.04077773836542,2024-10-09 18h33.04.014668 +0530,
145,0,145,[0.4033333333333333],[-0.051666666666666666],[1],[0],[0],[1.4527070969998022],['target'],145,0,145,0,245.20454975300163,,5,245.19276695200097,245.20454975300163,245.20454975300163,0.014513510999677237,246.64589733200046,[0.4033333333333333],[-0.051666666666666666],[1],[0],[0],[1.4527070969998022],['target'],775551,001,2024-10-09_18h32.51.122,VISUALSEARCH,2024.2.1,42.04077773836542,2024-10-09 18h33.04.014668 +0530,
146,0,146,[-0.48833333333333334],[-0.19833333333333333],[1],[0],[0],[1.311278723002033],['target'],146,0,146,0,246.69017372799863,,10,246.67355453900018,246.69017372799863,246.69017372799863,0.027515920999576338,247.9853078470005,[-0.48833333333333334],[-0.19833333333333333],[1],[0],[0],[1.311278723002033],['target'],775551,001,2024-10-09_18h32.51.122,VISUALSEARCH,2024.2.1,42.04077773836542,2024-10-09 18h33.04.014668 +0530,
147,0,147,[-0.45166666666666666],[0.14333333333333334],[1],[0],[0],[1.3381865459996334],['target'],147,0,147,0,248.02944064199983,,10,248.01363416599997,248.02944064199983,248.02944064199983,0.028165682997496333,249.35220139599915,[-0.45166666666666666],[0.14333333333333334],[1],[0],[0],[1.3381865459996334],['target'],775551,001,2024-10-09_18h32.51.122,VISUALSEARCH,2024.2.1,42.04077773836542,2024-10-09 18h33.04.014668 +0530,
148,0,148,[-0.2],[0.10333333333333333],[1],[0],[0],[1.9300272010004846],['target'],148,0,148,0,249.37881444999948,,5,249.3680196569985,249.37881444999948,249.37881444999948,0.01566640099918004,251.29842082200048,[-0.2],[0.10333333333333333],[1],[0],[0],[1.9300272010004846],['target'],775551,001,2024-10-09_18h32.51.122,VISUALSEARCH,2024.2.1,42.04077773836542,2024-10-09 18h33.04.014668 +0530,
149,0,149,[-0.4166666666666667],[-0.021666666666666667],[1],[0],[0],[1.9777660399995511],['target'],149,0,149,0,251.32519433299967,,5,251.31367020000107,251.32519433299967,251.32519433299967,0.015100095002708258,253.2918815180019,[-0.4166666666666667],[-0.021666666666666667],[1],[0],[0],[1.9777660399995511],['target'],775551,001,2024-10-09_18h32.51.122,VISUALSEARCH,2024.2.1,42.04077773836542,2024-10-09 18h33.04.014668 +0530,
150,0,150,[0.21833333333333332],[-0.09166666666666666],[1],[0],[0],[1.3600296980002895],['target'],150,0,150,0,253.31831527599934,,5,253.30643958099972,253.31831527599934,253.31831527599934,0.01442851599858841,254.66688684900146,[0.21833333333333332],[-0.09166666666666666],[1],[0],[0],[1.3600296980002895],['target'],775551,001,2024-10-09_18h32.51.122,VISUALSEARCH,2024.2.1,42.04077773836542,2024-10-09 18h33.04.014668 +0530,
151,0,151,[0.11],[-0.44],[1],[0],[0],[1.499186984001426],['target'],151,0,151,0,254.69233037899903,,5,254.6824203690012,254.69233037899903,254.69233037899903,0.015403858000354376,256.18224324100083,[0.11],[-0.44],[1],[0],[0],[1.499186984001426],['target'],775551,001,2024-10-09_18h32.51.122,VISUALSEARCH,2024.2.1,42.04077773836542,2024-10-09 18h33.04.014668 +0530,
152,0,152,[-0.4683333333333333],[-0.12333333333333334],[1],[0],[0],[1.405180547000782],['target'],152,0,152,0,256.2103877180016,,5,256.1988434949999,256.2103877180016,256.2103877180016,0.016421227002865635,257.60441064599945,[-0.4683333333333333],[-0.12333333333333334],[1],[0],[0],[1.405180547000782],['target'],775551,001,2024-10-09_18h32.51.122,VISUALSEARCH,2024.2.1,42.04077773836542,2024-10-09 18h33.04.014668 +0530,
153,0,153,[0.3466666666666667],[0.16166666666666665],[1],[0],[0],[1.2878200619998097],['target'],153,0,153,0,257.6309644549983,,5,257.62043847300083,257.6309644549983,257.6309644549983,0.015904886997304857,258.90865020899946,[0.3466666666666667],[0.16166666666666665],[1],[0],[0],[1.2878200619998097],['target'],775551,001,2024-10-09_18h32.51.122,VISUALSEARCH,2024.2.1,42.04077773836542,2024-10-09 18h33.04.014668 +0530,
154,0,154,[0.33166666666666667],[0.38666666666666666],[1],[0],[0],[1.5674101549993793],['target'],154,0,154,0,258.9344202300017,,5,258.92389819000164,258.9344202300017,258.9344202300017,0.015121459000511095,260.49182311000186,[0.33166666666666667],[0.38666666666666666],[1],[0],[0],[1.5674101549993793],['target'],775551,001,2024-10-09_18h32.51.122,VISUALSEARCH,2024.2.1,42.04077773836542,2024-10-09 18h33.04.014668 +0530,
155,0,155,[0.44166666666666665],[0.455],[1],[0],[0],[1.776531049003097],['target'],155,0,155,0,260.5230308300015,,5,260.51108242199916,260.5230308300015,260.5230308300015,0.019025844001589576,262.2880223659995,[0.44166666666666665],[0.455],[1],[0],[0],[1.776531049003097],['target'],775551,001,2024-10-09_18h32.51.122,VISUALSEARCH,2024.2.1,42.04077773836542,2024-10-09 18h33.04.014668 +0530,
156,0,156,[0.13666666666666666],[0.435],[1],[0],[0],[1.1856508089986164],['target'],156,0,156,0,262.3315418029997,,10,262.31621520599947,262.3315418029997,262.3315418029997,0.028066989998478675,263.50241077399915,[0.13666666666666666],[0.435],[1],[0],[0],[1.1856508089986164],['target'],775551,001,2024-10-09_18h32.51.122,VISUALSEARCH,2024.2.1,42.04077773836542,2024-10-09 18h33.04.014668 +0530,
157,0,157,[-0.44666666666666666],[-0.44],[1],[0],[0],[1.3746359910001047],['target'],157,0,157,0,263.5296434000011,,5,263.5175658619992,263.5296434000011,263.5296434000011,0.014970995998737635,264.8926597030004,[-0.44666666666666666],[-0.44],[1],[0],[0],[1.3746359910001047],['target'],775551,001,2024-10-09_18h32.51.122,VISUALSEARCH,2024.2.1,42.04077773836542,2024-10-09 18h33.04.014668 +0530,
158,0,158,[0.475],[-0.04833333333333333],[1],[0],[0],[1.2596320909979113],['target'],158,0,158,0,264.91835384300066,,5,264.90709650699864,264.91835384300066,264.91835384300066,0.014297265999630326,266.1671413820004,[0.475],[-0.04833333333333333],[1],[0],[0],[1.2596320909979113],['target'],775551,001,2024-10-09_18h32.51.122,VISUALSEARCH,2024.2.1,42.04077773836542,2024-10-09 18h33.04.014668 +0530,
159,0,159,[0.17666666666666667],[-0.4083333333333333],[1],[0],[0],[1.6908846180012915],['target'],159,0,159,0,266.21009671900174,,10,266.1946548390006,266.21009671900174,266.21009671900174,0.0273840250010835,267.8861467909992,[0.17666666666666667],[-0.4083333333333333],[1],[0],[0],[1.6908846180012915],['target'],775551,001,2024-10-09_18h32.51.122,VISUALSEARCH,2024.2.1,42.04077773836542,2024-10-09 18h33.04.014668 +0530,
160,0,160,[0.03333333333333333],[0.09166666666666666],[1],[0],[0],[2.9785974939986772],['target'],160,0,160,0,267.92941255500045,,10,267.9134533110009,267.92941255500045,267.92941255500045,0.0270286209997721,270.8924871240015,[0.03333333333333333],[0.09166666666666666],[1],[0],[0],[2.9785974939986772],['target'],775551,001,2024-10-09_18h32.51.122,VISUALSEARCH,2024.2.1,42.04077773836542,2024-10-09 18h33.04.014668 +0530,
161,0,161,[-0.39666666666666667],[0.17833333333333334],[1],[0],[0],[1.7358222610018856],['target'],161,0,161,0,270.91906577199916,,5,270.90779725099856,270.91906577199916,270.91906577199916,0.015154578002693597,272.6441648539985,[-0.39666666666666667],[0.17833333333333334],[1],[0],[0],[1.7358222610018856],['target'],775551,001,2024-10-09_18h32.51.122,VISUALSEARCH,2024.2.1,42.04077773836542,2024-10-09 18h33.04.014668 +0530,
162,0,162,[-0.28],[-0.28],[1],[0],[0],[1.457133387997601],['target'],162,0,162,0,272.6703035190003,,5,272.6592585620019,272.6703035190003,272.6703035190003,0.014965313999709906,274.1168626580002,[-0.28],[-0.28],[1],[0],[0],[1.457133387997601],['target'],775551,001,2024-10-09_18h32.51.122,VISUALSEARCH,2024.2.1,42.04077773836542,2024-10-09 18h33.04.014668 +0530,
163,0,163,[0.4033333333333333],[0.42],[1],[0],[0],[2.350722491999477],['target'],163,0,163,0,274.16132698599904,,10,274.1460491370017,274.16132698599904,274.16132698599904,0.029021649999776855,276.49730785499924,[0.4033333333333333],[0.42],[1],[0],[0],[2.350722491999477],['target'],775551,001,2024-10-09_18h32.51.122,VISUALSEARCH,2024.2.1,42.04077773836542,2024-10-09 18h33.04.014668 +0530,
164,0,164,[0.275],[-0.47],[1],[0],[0],[2.0209876879998774],['target'],164,0,164,0,276.5243236150018,,5,276.5127658749989,276.5243236150018,276.5243236150018,0.015303660002246033,278.53419687600035,[0.275],[-0.47],[1],[0],[0],[2.0209876879998774],['target'],775551,001,2024-10-09_18h32.51.122,VISUALSEARCH,2024.2.1,42.04077773836542,2024-10-09 18h33.04.014668 +0530,
165,0,165,[0.13666666666666666],[0.37833333333333335],[1],[0],[0],[1.7367690230021253],['target'],165,0,165,0,278.5779097049999,,10,278.56210842200016,278.5779097049999,278.5779097049999,0.027768632000515936,280.29938522500015,[0.13666666666666666],[0.37833333333333335],[1],[0],[0],[1.7367690230021253],['target'],775551,001,2024-10-09_18h32.51.122,VISUALSEARCH,2024.2.1,42.04077773836542,2024-10-09 18h33.04.014668 +0530,
166,0,166,[0.36],[-0.24333333333333335],[1],[0],[0],[1.6342249059998721],['target'],166,0,166,0,280.3421556450012,,10,280.32617216699873,280.3421556450012,280.3421556450012,0.02660741899671848,281.9608073550007,[0.36],[-0.24333333333333335],[1],[0],[0],[1.6342249059998721],['target'],775551,001,2024-10-09_18h32.51.122,VISUALSEARCH,2024.2.1,42.04077773836542,2024-10-09 18h33.04.014668 +0530,
167,0,167,[-0.21666666666666667],[-0.18333333333333332],[1],[0],[0],[1.2798904470000707],['target'],167,0,167,0,281.9877204059994,,5,281.9757433150007,281.9877204059994,281.9877204059994,0.014772806000109995,283.2561944359986,[-0.21666666666666667],[-0.18333333333333332],[1],[0],[0],[1.2798904470000707],['target'],775551,001,2024-10-09_18h32.51.122,VISUALSEARCH,2024.2.1,42.04077773836542,2024-10-09 18h33.04.014668 +0530,
168,0,168,[0.225],[-0.38333333333333336],[1],[0],[0],[1.6664903390010295],['target'],168,0,168,0,283.30041076999987,,10,283.2843961110011,283.30041076999987,283.30041076999987,0.028079640000214567,284.9514105140006,[0.225],[-0.38333333333333336],[1],[0],[0],[1.6664903390010295],['target'],775551,001,2024-10-09_18h32.51.122,VISUALSEARCH,2024.2.1,42.04077773836542,2024-10-09 18h33.04.014668 +0530,
169,0,169,[0.19333333333333333],[-0.325],[1],[0],[0],[1.0367948329985666],['target'],169,0,169,0,285.06987146900065,,10,285.05397464600173,285.06987146900065,285.06987146900065,0.10240112000246882,286.0911952009992,[0.19333333333333333],[-0.325],[1],[0],[0],[1.0367948329985666],['target'],775551,001,2024-10-09_18h32.51.122,VISUALSEARCH,2024.2.1,42.04077773836542,2024-10-09 18h33.04.014668 +0530,
170,0,170,[-0.295],[-0.295],[1],[0],[0],[1.612792805000936],['target'],170,0,170,0,286.1346028000007,,10,286.11876915099856,286.1346028000007,286.1346028000007,0.027419463000114774,287.7320571329983,[-0.295],[-0.295],[1],[0],[0],[1.612792805000936],['target'],775551,001,2024-10-09_18h32.51.122,VISUALSEARCH,2024.2.1,42.04077773836542,2024-10-09 18h33.04.014668 +0530,
171,0,171,[0.21833333333333332],[-0.13166666666666665],[1],[0],[0],[1.1851499990007142],['target'],171,0,171,0,287.75724882600116,,5,287.7466676699987,287.75724882600116,287.75724882600116,0.014457199999014847,288.93245246600054,[0.21833333333333332],[-0.13166666666666665],[1],[0],[0],[1.1851499990007142],['target'],775551,001,2024-10-09_18h32.51.122,VISUALSEARCH,2024.2.1,42.04077773836542,2024-10-09 18h33.04.014668 +0530,
172,0,172,[0.22833333333333333],[-0.41],[1],[0],[0],[1.492931435997889],['target'],172,0,172,0,288.95781692400124,,5,288.94664987299984,288.95781692400124,288.95781692400124,0.014029685000423342,290.4399850359987,[0.22833333333333333],[-0.41],[1],[0],[0],[1.492931435997889],['target'],775551,001,2024-10-09_18h32.51.122,VISUALSEARCH,2024.2.1,42.04077773836542,2024-10-09 18h33.04.014668 +0530,
173,0,173,[-0.23166666666666666],[0.14166666666666666],[1],[0],[0],[1.190134857002704],['target'],173,0,173,0,290.4656650190009,,5,290.4542218380011,290.4656650190009,290.4656650190009,0.014112439999735216,291.6448949650003,[-0.23166666666666666],[0.14166666666666666],[1],[0],[0],[1.190134857002704],['target'],775551,001,2024-10-09_18h32.51.122,VISUALSEARCH,2024.2.1,42.04077773836542,2024-10-09 18h33.04.014668 +0530,
174,0,174,[-0.36333333333333334],[0.15833333333333333],[1],[0],[0],[1.4224620850000065],['target'],174,0,174,0,291.67106266300107,,5,291.6595754400005,291.67106266300107,291.67106266300107,0.014554976998624625,293.08248208700024,[-0.36333333333333334],[0.15833333333333333],[1],[0],[0],[1.4224620850000065],['target'],775551,001,2024-10-09_18h32.51.122,VISUALSEARCH,2024.2.1,42.04077773836542,2024-10-09 18h33.04.014668 +0530,
175,0,175,[-0.2783333333333333],[0.18333333333333332],[1],[0],[0],[1.241520865001803],['target'],175,0,175,0,293.12544601899936,,10,293.1102620700003,293.12544601899936,293.12544601899936,0.027648326999042183,294.3521619989988,[-0.2783333333333333],[0.18333333333333332],[1],[0],[0],[1.241520865001803],['target'],775551,001,2024-10-09_18h32.51.122,VISUALSEARCH,2024.2.1,42.04077773836542,2024-10-09 18h33.04.014668 +0530,
176,0,176,[-0.26],[0.07166666666666667],[1],[0],[0],[1.2944255859983969],['target'],176,0,176,0,294.37826071699965,,5,294.3672942839985,294.37826071699965,294.37826071699965,0.014980101001128787,295.66220933300065,[-0.26],[0.07166666666666667],[1],[0],[0],[1.2944255859983969],['target'],775551,001,2024-10-09_18h32.51.122,VISUALSEARCH,2024.2.1,42.04077773836542,2024-10-09 18h33.04.014668 +0530,
177,0,177,[-0.195],[0.041666666666666664],[1],[0],[0],[1.0835919300006935],['target'],177,0,177,0,295.70582491299865,,10,295.6899570780006,295.70582491299865,295.70582491299865,0.027619660999334883,296.7739572800019,[-0.195],[0.041666666666666664],[1],[0],[0],[1.0835919300006935],['target'],775551,001,2024-10-09_18h32.51.122,VISUALSEARCH,2024.2.1,42.04077773836542,2024-10-09 18h33.04.014668 +0530,
178,0,178,[-0.39666666666666667],[-0.37166666666666665],[1],[0],[0],[2.022757795999496],['target'],178,0,178,0,296.8182592480007,,10,296.8029180150006,296.8182592480007,296.8182592480007,0.028798642997571733,298.8262757070006,[-0.39666666666666667],[-0.37166666666666665],[1],[0],[0],[2.022757795999496],['target'],775551,001,2024-10-09_18h32.51.122,VISUALSEARCH,2024.2.1,42.04077773836542,2024-10-09 18h33.04.014668 +0530,
179,0,179,[0.056666666666666664],[-0.0016666666666666668],[1],[0],[0],[2.5497327289995155],['target'],179,0,179,0,298.8742948149993,,10,298.8580913440019,298.8742948149993,298.8742948149993,0.03156073900026968,301.4082488749991,[0.056666666666666664],[-0.0016666666666666668],[1],[0],[0],[2.5497327289995155],['target'],775551,001,2024-10-09_18h32.51.122,VISUALSEARCH,2024.2.1,42.04077773836542,2024-10-09 18h33.04.014668 +0530,
180,0,180,[-0.37666666666666665],[0.4666666666666667],[1],[0],[0],[3.703253882998979],['target'],180,0,180,0,301.45227318699835,,10,301.43606053799886,301.45227318699835,301.45227318699835,0.027651964999677148,305.1397538909987,[-0.37666666666666665],[0.4666666666666667],[1],[0],[0],[3.703253882998979],['target'],775551,001,2024-10-09_18h32.51.122,VISUALSEARCH,2024.2.1,42.04077773836542,2024-10-09 18h33.04.014668 +0530,
181,0,181,[0.10333333333333333],[-0.245],[1],[0],[0],[1.6866199219984992],['target'],181,0,181,0,305.1659712469991,,5,305.15431055799854,305.1659712469991,305.1659712469991,0.014395858997886535,306.84133160499914,[0.10333333333333333],[-0.245],[1],[0],[0],[1.6866199219984992],['target'],775551,001,2024-10-09_18h32.51.122,VISUALSEARCH,2024.2.1,42.04077773836542,2024-10-09 18h33.04.014668 +0530,
182,0,182,[-0.008333333333333333],[0.056666666666666664],[1],[0],[0],[1.4257433909988322],['target'],182,0,182,0,306.8662065390017,,5,306.85501745000147,306.8662065390017,306.8662065390017,0.01356276500155218,308.2811852720006,[-0.008333333333333333],[0.056666666666666664],[1],[0],[0],[1.4257433909988322],['target'],775551,001,2024-10-09_18h32.51.122,VISUALSEARCH,2024.2.1,42.04077773836542,2024-10-09 18h33.04.014668 +0530,
183,0,183,[-0.06166666666666667],[0.08166666666666667],[1],[0],[0],[0.8924086330007412],['target'],183,0,183,0,308.30662211800154,,5,308.2955713939991,308.30662211800154,308.30662211800154,0.01425485999789089,309.1883695590004,[-0.06166666666666667],[0.08166666666666667],[1],[0],[0],[0.8924086330007412],['target'],775551,001,2024-10-09_18h32.51.122,VISUALSEARCH,2024.2.1,42.04077773836542,2024-10-09 18h33.04.014668 +0530,
184,0,184,[0.37166666666666665],[-0.23666666666666666],[1],[0],[0],[2.175346800002444],['target'],184,0,184,0,309.23370231399895,,10,309.2178897769991,309.23370231399895,309.23370231399895,0.029384612000285415,311.39367572300034,[0.37166666666666665],[-0.23666666666666666],[1],[0],[0],[2.175346800002444],['target'],775551,001,2024-10-09_18h32.51.122,VISUALSEARCH,2024.2.1,42.04077773836542,2024-10-09 18h33.04.014668 +0530,
185,0,185,[-0.12333333333333334],[-0.36666666666666664],[1],[0],[0],[1.419506542999443],['target'],185,0,185,0,311.4186224389996,,5,311.40765083099905,311.4186224389996,311.4186224389996,0.013832485001330497,312.8276362309989,[-0.12333333333333334],[-0.36666666666666664],[1],[0],[0],[1.419506542999443],['target'],775551,001,2024-10-09_18h32.51.122,VISUALSEARCH,2024.2.1,42.04077773836542,2024-10-09 18h33.04.014668 +0530,
186,0,186,[0.0],[0.31333333333333335],[1],[0],[0],[2.3501305299978412],['target'],186,0,186,0,312.87114108400056,,10,312.855235518,312.87114108400056,312.87114108400056,0.027465006001875736,315.2059949700015,[0.0],[0.31333333333333335],[1],[0],[0],[2.3501305299978412],['target'],775551,001,2024-10-09_18h32.51.122,VISUALSEARCH,2024.2.1,42.04077773836542,2024-10-09 18h33.04.014668 +0530,
187,0,187,[-0.5116666666666667],[-0.3566666666666667],[1],[0],[0],[2.3702356680005323],['target'],187,0,187,0,315.2499599900002,,10,315.2344964490003,315.2499599900002,315.2499599900002,0.028261526000278536,317.6055167679988,[-0.5116666666666667],[-0.3566666666666667],[1],[0],[0],[2.3702356680005323],['target'],775551,001,2024-10-09_18h32.51.122,VISUALSEARCH,2024.2.1,42.04077773836542,2024-10-09 18h33.04.014668 +0530,
188,0,188,[-0.215],[-0.12666666666666668],[1],[0],[0],[1.561425602001691],['target'],188,0,188,0,317.6526708400015,,10,317.63645793899923,317.6526708400015,317.6526708400015,0.030690630999743007,319.19833484300034,[-0.215],[-0.12666666666666668],[1],[0],[0],[1.561425602001691],['target'],775551,001,2024-10-09_18h32.51.122,VISUALSEARCH,2024.2.1,42.04077773836542,2024-10-09 18h33.04.014668 +0530,
189,0,189,[-0.32],[-0.20333333333333334],[1],[0],[0],[3.0923960840009386],['target'],189,0,189,0,319.2249453980003,,5,319.21358468900144,319.2249453980003,319.2249453980003,0.015096242001163773,322.30639538000105,[-0.32],[-0.20333333333333334],[1],[0],[0],[3.0923960840009386],['target'],775551,001,2024-10-09_18h32.51.122,VISUALSEARCH,2024.2.1,42.04077773836542,2024-10-09 18h33.04.014668 +0530,
190,0,190,[0.14666666666666667],[0.14666666666666667],[1],[0],[0],[1.309933437001746],['target'],190,0,190,0,322.33199998499913,,5,322.32087126400074,322.33199998499913,322.33199998499913,0.014344705999974394,323.63127126900145,[0.14666666666666667],[0.14666666666666667],[1],[0],[0],[1.309933437001746],['target'],775551,001,2024-10-09_18h32.51.122,VISUALSEARCH,2024.2.1,42.04077773836542,2024-10-09 18h33.04.014668 +0530,
191,0,191,[-0.16],[-0.21],[1],[0],[0],[1.498275604997616],['target'],191,0,191,0,323.6572495690016,,5,323.64559759799886,323.6572495690016,323.6572495690016,0.014176837001286913,325.1446617729998,[-0.16],[-0.21],[1],[0],[0],[1.498275604997616],['target'],775551,001,2024-10-09_18h32.51.122,VISUALSEARCH,2024.2.1,42.04077773836542,2024-10-09 18h33.04.014668 +0530,
192,0,192,[0.3466666666666667],[0.31833333333333336],[1],[0],[0],[1.961391327000456],['target'],192,0,192,0,325.189621163001,,10,325.17383194300055,325.189621163001,325.189621163001,0.029041535999567714,327.1357478309983,[0.3466666666666667],[0.31833333333333336],[1],[0],[0],[1.961391327000456],['target'],775551,001,2024-10-09_18h32.51.122,VISUALSEARCH,2024.2.1,42.04077773836542,2024-10-09 18h33.04.014668 +0530,
193,0,193,[0.15166666666666667],[0.39666666666666667],[1],[0],[0],[2.055275102997257],['target'],193,0,193,0,327.17957422499967,,10,327.16401924399906,327.17957422499967,327.17957422499967,0.027997791999951005,329.21972540099887,[0.15166666666666667],[0.39666666666666667],[1],[0],[0],[2.055275102997257],['target'],775551,001,2024-10-09_18h32.51.122,VISUALSEARCH,2024.2.1,42.04077773836542,2024-10-09 18h33.04.014668 +0530,
194,0,194,[-0.016666666666666666],[-0.08666666666666667],[1],[0],[0],[1.747773844999756],['target'],194,0,194,0,329.24543884000013,,5,329.23365443900184,329.24543884000013,329.24543884000013,0.013774593000562163,330.98195332400064,[-0.016666666666666666],[-0.08666666666666667],[1],[0],[0],[1.747773844999756],['target'],775551,001,2024-10-09_18h32.51.122,VISUALSEARCH,2024.2.1,42.04077773836542,2024-10-09 18h33.04.014668 +0530,
195,0,195,[-0.45666666666666667],[0.17666666666666667],[1],[0],[0],[1.6006221370007552],['target'],195,0,195,0,331.00823258400123,,5,330.99696628400125,331.00823258400123,331.00823258400123,0.01488747199982754,332.5981471749983,[-0.45666666666666667],[0.17666666666666667],[1],[0],[0],[1.6006221370007552],['target'],775551,001,2024-10-09_18h32.51.122,VISUALSEARCH,2024.2.1,42.04077773836542,2024-10-09 18h33.04.014668 +0530,
196,0,196,[-0.056666666666666664],[0.0],[1],[0],[0],[4.305141992001154],['target'],196,0,196,0,332.6230270990018,,5,332.6124057599991,332.6230270990018,332.6230270990018,0.01412634100051946,336.9182468930012,[-0.056666666666666664],[0.0],[1],[0],[0],[4.305141992001154],['target'],775551,001,2024-10-09_18h32.51.122,VISUALSEARCH,2024.2.1,42.04077773836542,2024-10-09 18h33.04.014668 +0530,
197,0,197,[-0.03666666666666667],[0.09666666666666666],[1],[0],[0],[2.234964150997257],['target'],197,0,197,0,336.96218194099856,,10,336.9462870089992,336.96218194099856,336.96218194099856,0.027832564002892468,339.18167534299937,[-0.03666666666666667],[0.09666666666666666],[1],[0],[0],[2.234964150997257],['target'],775551,001,2024-10-09_18h32.51.122,VISUALSEARCH,2024.2.1,42.04077773836542,2024-10-09 18h33.04.014668 +0530,
198,0,198,[-0.4633333333333333],[0.355],[1],[0],[0],[1.5436786219979695],['target'],198,0,198,0,339.20869645900166,,5,339.19665631799944,339.20869645900166,339.20869645900166,0.014821455999481259,340.7407200870002,[-0.4633333333333333],[0.355],[1],[0],[0],[1.5436786219979695],['target'],775551,001,2024-10-09_18h32.51.122,VISUALSEARCH,2024.2.1,42.04077773836542,2024-10-09 18h33.04.014668 +0530,
199,0,199,[-0.33166666666666667],[-0.03],[1],[0],[0],[1.5387166109976533],['target'],199,0,199,0,340.7645653670006,,5,340.75471865299914,340.7645653670006,340.7645653670006,0.013876625002012588,342.29399686000033,[-0.33166666666666667],[-0.03],[1],[0],[0],[1.5387166109976533],['target'],775551,001,2024-10-09_18h32.51.122,VISUALSEARCH,2024.2.1,42.04077773836542,2024-10-09 18h33.04.014668 +0530,
