thisN,thisTrialN,thisRepN,mouse.x,mouse.y,mouse.leftButton,mouse.midButton,mouse.rightButton,mouse.time,mouse.clicked_name,trials.thisRepN,trials.thisTrialN,trials.thisN,trials.thisIndex,thisRow.t,notes,num_distr,trial.started,fixation.started,target.started,mouse.started,trial.stopped,trials.mouse.x,trials.mouse.y,trials.mouse.leftButton,trials.mouse.midButton,trials.mouse.rightButton,trials.mouse.time,trials.mouse.clicked_name,participant,session,date,expName,psychopyVersion,frameRate,expStart,
0,0,0,[-0.2688888888888889],[0.04555555555555556],[1],[0],[0],[2.4517507329983346],['target'],0,0,0,0,0.05086456600110978,,5,0.024519933998817578,0.05086456600110978,0.05086456600110978,0.02422069900057977,2.477022571998532,[-0.2688888888888889],[0.04555555555555556],[1],[0],[0],[2.4517507329983346],['target'],598892,001,2024-10-10_13h52.57.827,VISUALSEARCH,2024.2.1,None,2024-10-10 13h53.16.398536 +0530,
1,0,1,[0.14],[0.3933333333333333],[1],[0],[0],[1.359806414002378],['target'],1,0,1,0,2.526603009999235,,10,2.5096789310009626,2.526603009999235,2.526603009999235,0.03239188199950149,3.8701729710010113,[0.14],[0.3933333333333333],[1],[0],[0],[1.359806414002378],['target'],598892,001,2024-10-10_13h52.57.827,VISUALSEARCH,2024.2.1,None,2024-10-10 13h53.16.398536 +0530,
2,0,2,[0.3522222222222222],[0.3522222222222222],[1],[0],[0],[1.0217044790006184],['target'],2,0,2,0,3.9157003200016334,,10,3.899492194999766,3.9157003200016334,3.9157003200016334,0.02903945399884833,4.921742367998377,[0.3522222222222222],[0.3522222222222222],[1],[0],[0],[1.0217044790006184],['target'],598892,001,2024-10-10_13h52.57.827,VISUALSEARCH,2024.2.1,None,2024-10-10 13h53.16.398536 +0530,
3,0,3,[0.04777777777777778],[0.46444444444444444],[1],[0],[0],[1.1574564410002495],['target'],3,0,3,0,4.948430288000964,,5,4.937691425999219,4.948430288000964,4.948430288000964,0.015733547999843722,6.0957714739997755,[0.04777777777777778],[0.46444444444444444],[1],[0],[0],[1.1574564410002495],['target'],598892,001,2024-10-10_13h52.57.827,VISUALSEARCH,2024.2.1,None,2024-10-10 13h53.16.398536 +0530,
4,0,4,[0.3844444444444444],[0.21],[1],[0],[0],[1.3004028589966765],['target'],4,0,4,0,6.14166417800152,,10,6.125486542001454,6.14166417800152,6.14166417800152,0.029550408999057254,7.426284958000906,[0.3844444444444444],[0.21],[1],[0],[0],[1.3004028589966765],['target'],598892,001,2024-10-10_13h52.57.827,VISUALSEARCH,2024.2.1,None,2024-10-10 13h53.16.398536 +0530,
5,0,5,[-0.16],[-0.43333333333333335],[1],[0],[0],[2.009194436002872],['target'],5,0,5,0,7.468483118998847,,10,7.453357155001868,7.468483118998847,7.468483118998847,0.026906950999546098,9.462979347001237,[-0.16],[-0.43333333333333335],[1],[0],[0],[2.009194436002872],['target'],598892,001,2024-10-10_13h52.57.827,VISUALSEARCH,2024.2.1,None,2024-10-10 13h53.16.398536 +0530,
6,0,6,[-0.36],[-0.31222222222222223],[1],[0],[0],[1.7778686150013527],['target'],6,0,6,0,9.506344872999762,,10,9.490897424999275,9.506344872999762,9.506344872999762,0.027753130001656245,11.269271666998975,[-0.36],[-0.31222222222222223],[1],[0],[0],[1.7778686150013527],['target'],598892,001,2024-10-10_13h52.57.827,VISUALSEARCH,2024.2.1,None,2024-10-10 13h53.16.398536 +0530,
7,0,7,[-0.38333333333333336],[-0.32],[1],[0],[0],[1.3988354799985245],['target'],7,0,7,0,11.313315046001662,,10,11.297996689001593,11.313315046001662,11.313315046001662,0.02848680500028422,12.69723862599858,[-0.38333333333333336],[-0.32],[1],[0],[0],[1.3988354799985245],['target'],598892,001,2024-10-10_13h52.57.827,VISUALSEARCH,2024.2.1,None,2024-10-10 13h53.16.398536 +0530,
8,0,8,[0.35555555555555557],[-0.18666666666666668],[1],[0],[0],[2.770254096998542],['target'],8,0,8,0,12.742666772999655,,10,12.726140814000246,12.742666772999655,12.742666772999655,0.02872612300052424,15.496858907001297,[0.35555555555555557],[-0.18666666666666668],[1],[0],[0],[2.770254096998542],['target'],598892,001,2024-10-10_13h52.57.827,VISUALSEARCH,2024.2.1,None,2024-10-10 13h53.16.398536 +0530,
9,0,9,[0.36444444444444446],[0.14888888888888888],[1],[0],[0],[1.191565413002536],['target'],9,0,9,0,15.524489474999427,,5,15.512068563999492,15.524489474999427,15.524489474999427,0.015026380002382211,16.704525226999976,[0.36444444444444446],[0.14888888888888888],[1],[0],[0],[1.191565413002536],['target'],598892,001,2024-10-10_13h52.57.827,VISUALSEARCH,2024.2.1,None,2024-10-10 13h53.16.398536 +0530,
10,0,10,[-0.3844444444444444],[-0.021111111111111112],[1],[0],[0],[1.696575257999939],['target'],10,0,10,0,16.75236180000138,,10,16.736165348000213,16.75236180000138,16.75236180000138,0.031422283998836065,18.433128764001594,[-0.3844444444444444],[-0.021111111111111112],[1],[0],[0],[1.696575257999939],['target'],598892,001,2024-10-10_13h52.57.827,VISUALSEARCH,2024.2.1,None,2024-10-10 13h53.16.398536 +0530,
11,0,11,[-0.18],[-0.1988888888888889],[1],[0],[0],[1.4119433560008474],['target'],11,0,11,0,18.462113740999484,,5,18.44994443199903,18.462113740999484,18.462113740999484,0.01666159800151945,19.86237162800171,[-0.18],[-0.1988888888888889],[1],[0],[0],[1.4119433560008474],['target'],598892,001,2024-10-10_13h52.57.827,VISUALSEARCH,2024.2.1,None,2024-10-10 13h53.16.398536 +0530,
12,0,12,[0.056666666666666664],[0.18222222222222223],[1],[0],[0],[1.6452754189995176],['target'],12,0,12,0,19.90854272800061,,10,19.89159151200147,19.90854272800061,19.90854272800061,0.029092250999383396,21.5377314139987,[0.056666666666666664],[0.18222222222222223],[1],[0],[0],[1.6452754189995176],['target'],598892,001,2024-10-10_13h52.57.827,VISUALSEARCH,2024.2.1,None,2024-10-10 13h53.16.398536 +0530,
13,0,13,[0.056666666666666664],[-0.4411111111111111],[1],[0],[0],[1.8776424160023453],['target'],13,0,13,0,21.579519972001435,,10,21.564441611000802,21.579519972001435,21.579519972001435,0.026547831999778282,23.442752339000435,[0.056666666666666664],[-0.4411111111111111],[1],[0],[0],[1.8776424160023453],['target'],598892,001,2024-10-10_13h52.57.827,VISUALSEARCH,2024.2.1,None,2024-10-10 13h53.16.398536 +0530,
14,0,14,[-0.10333333333333333],[0.14],[1],[0],[0],[1.5379314369965869],['target'],14,0,14,0,23.491199705000327,,10,23.475330421999388,23.491199705000327,23.491199705000327,0.032333030001609586,25.01375466999889,[-0.10333333333333333],[0.14],[1],[0],[0],[1.5379314369965869],['target'],598892,001,2024-10-10_13h52.57.827,VISUALSEARCH,2024.2.1,None,2024-10-10 13h53.16.398536 +0530,
15,0,15,[0.14],[0.14666666666666667],[1],[0],[0],[1.069469261001359],['target'],15,0,15,0,25.041676846001792,,5,25.029197638999904,25.041676846001792,25.041676846001792,0.015244648999214405,26.09917028199925,[0.14],[0.14666666666666667],[1],[0],[0],[1.069469261001359],['target'],598892,001,2024-10-10_13h52.57.827,VISUALSEARCH,2024.2.1,None,2024-10-10 13h53.16.398536 +0530,
16,0,16,[-0.33],[0.08555555555555555],[1],[0],[0],[1.3452395189997333],['target'],16,0,16,0,26.127639603000716,,5,26.11600963100136,26.127639603000716,26.127639603000716,0.016645971998514142,27.4620042739989,[-0.33],[0.08555555555555555],[1],[0],[0],[1.3452395189997333],['target'],598892,001,2024-10-10_13h52.57.827,VISUALSEARCH,2024.2.1,None,2024-10-10 13h53.16.398536 +0530,
17,0,17,[0.43555555555555553],[-0.2966666666666667],[1],[0],[0],[1.6692701969986956],['target'],17,0,17,0,27.491631412998686,,5,27.480609730999277,27.491631412998686,27.491631412998686,0.018228925997391343,29.15037612499873,[0.43555555555555553],[-0.2966666666666667],[1],[0],[0],[1.6692701969986956],['target'],598892,001,2024-10-10_13h52.57.827,VISUALSEARCH,2024.2.1,None,2024-10-10 13h53.16.398536 +0530,
18,0,18,[-0.14333333333333334],[0.10111111111111111],[1],[0],[0],[1.8035395849983615],['target'],18,0,18,0,29.194372745998407,,10,29.17865062800047,29.194372745998407,29.194372745998407,0.028150743997684913,30.982673075999628,[-0.14333333333333334],[0.10111111111111111],[1],[0],[0],[1.8035395849983615],['target'],598892,001,2024-10-10_13h52.57.827,VISUALSEARCH,2024.2.1,None,2024-10-10 13h53.16.398536 +0530,
19,0,19,[0.10111111111111111],[-0.36444444444444446],[1],[0],[0],[1.5328153379996365],['target'],19,0,19,0,31.02748788399913,,10,31.012023433999275,31.02748788399913,31.02748788399913,0.02914212299947394,32.54540782500044,[0.10111111111111111],[-0.36444444444444446],[1],[0],[0],[1.5328153379996365],['target'],598892,001,2024-10-10_13h52.57.827,VISUALSEARCH,2024.2.1,None,2024-10-10 13h53.16.398536 +0530,
20,0,20,[0.44333333333333336],[-0.11222222222222222],[1],[0],[0],[1.2356235160004871],['target'],20,0,20,0,32.571714452999004,,5,32.56005773400102,32.571714452999004,32.571714452999004,0.01448144000096363,33.79606370200054,[0.44333333333333336],[-0.11222222222222222],[1],[0],[0],[1.2356235160004871],['target'],598892,001,2024-10-10_13h52.57.827,VISUALSEARCH,2024.2.1,None,2024-10-10 13h53.16.398536 +0530,
21,0,21,[0.4444444444444444],[0.13444444444444445],[1],[0],[0],[1.4387850479979534],['target'],21,0,21,0,33.84044896400155,,10,33.824128217998805,33.84044896400155,33.84044896400155,0.0279396279984212,35.26334572699852,[0.4444444444444444],[0.13444444444444445],[1],[0],[0],[1.4387850479979534],['target'],598892,001,2024-10-10_13h52.57.827,VISUALSEARCH,2024.2.1,None,2024-10-10 13h53.16.398536 +0530,
22,0,22,[-0.16444444444444445],[0.3055555555555556],[1],[0],[0],[1.3886303469989798],['target'],22,0,22,0,35.29161949099944,,5,35.279163168001105,35.29161949099944,35.29161949099944,0.015641465000953758,36.6683555540003,[-0.16444444444444445],[0.3055555555555556],[1],[0],[0],[1.3886303469989798],['target'],598892,001,2024-10-10_13h52.57.827,VISUALSEARCH,2024.2.1,None,2024-10-10 13h53.16.398536 +0530,
23,0,23,[-0.04],[0.03],[1],[0],[0],[1.250759595001],['target'],23,0,23,0,36.71152947800147,,10,36.69620192599905,36.71152947800147,36.71152947800147,0.027704257001460064,37.94739924199894,[-0.04],[0.03],[1],[0],[0],[1.250759595001],['target'],598892,001,2024-10-10_13h52.57.827,VISUALSEARCH,2024.2.1,None,2024-10-10 13h53.16.398536 +0530,
24,0,24,[-0.2966666666666667],[0.06],[1],[0],[0],[1.1312307589978445],['target'],24,0,24,0,37.976858925998386,,5,37.96382526000161,37.976858925998386,37.976858925998386,0.01625239200075157,39.09566123499826,[-0.2966666666666667],[0.06],[1],[0],[0],[1.1312307589978445],['target'],598892,001,2024-10-10_13h52.57.827,VISUALSEARCH,2024.2.1,None,2024-10-10 13h53.16.398536 +0530,
25,0,25,[0.17],[-0.24666666666666667],[1],[0],[0],[1.5627426049977657],['target'],25,0,25,0,39.12594170800003,,5,39.11336345499876,39.12594170800003,39.12594170800003,0.017504935000033583,40.676791426998534,[0.17],[-0.24666666666666667],[1],[0],[0],[1.5627426049977657],['target'],598892,001,2024-10-10_13h52.57.827,VISUALSEARCH,2024.2.1,None,2024-10-10 13h53.16.398536 +0530,
26,0,26,[-0.41444444444444445],[0.07777777777777778],[1],[0],[0],[1.3748233600017556],['target'],26,0,26,0,40.72646696499942,,10,40.711070440000185,40.72646696499942,40.72646696499942,0.034026515000732616,42.08669261999967,[-0.41444444444444445],[0.07777777777777778],[1],[0],[0],[1.3748233600017556],['target'],598892,001,2024-10-10_13h52.57.827,VISUALSEARCH,2024.2.1,None,2024-10-10 13h53.16.398536 +0530,
27,0,27,[-0.25222222222222224],[0.4066666666666667],[1],[0],[0],[2.031765780000569],['target'],27,0,27,0,42.129374315998575,,10,42.113907992999884,42.129374315998575,42.129374315998575,0.026878936998400604,44.14624599099989,[-0.25222222222222224],[0.4066666666666667],[1],[0],[0],[2.031765780000569],['target'],598892,001,2024-10-10_13h52.57.827,VISUALSEARCH,2024.2.1,None,2024-10-10 13h53.16.398536 +0530,
28,0,28,[-0.31],[-0.45555555555555555],[1],[0],[0],[1.8000948959997913],['target'],28,0,28,0,44.17255581399877,,5,44.16164307099825,44.17255581399877,44.17255581399877,0.015222328001982532,45.96234462099892,[-0.31],[-0.45555555555555555],[1],[0],[0],[1.8000948959997913],['target'],598892,001,2024-10-10_13h52.57.827,VISUALSEARCH,2024.2.1,None,2024-10-10 13h53.16.398536 +0530,
29,0,29,[0.16555555555555557],[-0.21444444444444444],[1],[0],[0],[1.4318089290027274],['target'],29,0,29,0,46.009679201000836,,10,45.994088421000924,46.009679201000836,46.009679201000836,0.031539305000478635,47.42633082300017,[0.16555555555555557],[-0.21444444444444444],[1],[0],[0],[1.4318089290027274],['target'],598892,001,2024-10-10_13h52.57.827,VISUALSEARCH,2024.2.1,None,2024-10-10 13h53.16.398536 +0530,
30,0,30,[0.10555555555555556],[-0.2966666666666667],[1],[0],[0],[0.9774978040004498],['target'],30,0,30,0,47.45211964700138,,5,47.44086729199989,47.45211964700138,47.45211964700138,0.014348617998621194,48.418994046998705,[0.10555555555555556],[-0.2966666666666667],[1],[0],[0],[0.9774978040004498],['target'],598892,001,2024-10-10_13h52.57.827,VISUALSEARCH,2024.2.1,None,2024-10-10 13h53.16.398536 +0530,
31,0,31,[0.47444444444444445],[-0.4411111111111111],[1],[0],[0],[2.1207616309984587],['target'],31,0,31,0,48.46344046100057,,10,48.44797284800006,48.46344046100057,48.46344046100057,0.028797867998946458,50.56922340099845,[0.47444444444444445],[-0.4411111111111111],[1],[0],[0],[2.1207616309984587],['target'],598892,001,2024-10-10_13h52.57.827,VISUALSEARCH,2024.2.1,None,2024-10-10 13h53.16.398536 +0530,
32,0,32,[-0.04777777777777778],[-0.35333333333333333],[1],[0],[0],[1.999238761000015],['target'],32,0,32,0,50.613233665000735,,10,50.597250021000946,50.613233665000735,50.613233665000735,0.027653780998662114,52.59690189699904,[-0.04777777777777778],[-0.35333333333333333],[1],[0],[0],[1.999238761000015],['target'],598892,001,2024-10-10_13h52.57.827,VISUALSEARCH,2024.2.1,None,2024-10-10 13h53.16.398536 +0530,
33,0,33,[0.3411111111111111],[0.17777777777777778],[1],[0],[0],[1.7482749650007463],['target'],33,0,33,0,52.62332317699838,,5,52.6117287800007,52.62332317699838,52.62332317699838,0.014645937997556757,54.360458442999516,[0.3411111111111111],[0.17777777777777778],[1],[0],[0],[1.7482749650007463],['target'],598892,001,2024-10-10_13h52.57.827,VISUALSEARCH,2024.2.1,None,2024-10-10 13h53.16.398536 +0530,
34,0,34,[0.12],[-0.26222222222222225],[1],[0],[0],[1.4030491979974613],['target'],34,0,34,0,54.387947194001754,,5,54.37486097299916,54.387947194001754,54.387947194001754,0.01425972699871636,55.77841427000021,[0.12],[-0.26222222222222225],[1],[0],[0],[1.4030491979974613],['target'],598892,001,2024-10-10_13h52.57.827,VISUALSEARCH,2024.2.1,None,2024-10-10 13h53.16.398536 +0530,
35,0,35,[0.21222222222222223],[0.015555555555555555],[1],[0],[0],[1.4081861419981578],['target'],35,0,35,0,55.823290295000334,,10,55.8072761350013,55.823290295000334,55.823290295000334,0.02868622999812942,57.21600349000073,[0.21222222222222223],[0.015555555555555555],[1],[0],[0],[1.4081861419981578],['target'],598892,001,2024-10-10_13h52.57.827,VISUALSEARCH,2024.2.1,None,2024-10-10 13h53.16.398536 +0530,
36,0,36,[-0.12555555555555556],[-0.3511111111111111],[1],[0],[0],[1.7297615879979276],['target'],36,0,36,0,57.26321213100164,,10,57.24791383499905,57.26321213100164,57.26321213100164,0.03169564500058186,58.978103245000966,[-0.12555555555555556],[-0.3511111111111111],[1],[0],[0],[1.7297615879979276],['target'],598892,001,2024-10-10_13h52.57.827,VISUALSEARCH,2024.2.1,None,2024-10-10 13h53.16.398536 +0530,
37,0,37,[0.08555555555555555],[0.39444444444444443],[1],[0],[0],[1.4013223500005552],['target'],37,0,37,0,59.00563514000169,,5,58.99330815600115,59.00563514000169,59.00563514000169,0.015024497002741555,60.39517162099946,[0.08555555555555555],[0.39444444444444443],[1],[0],[0],[1.4013223500005552],['target'],598892,001,2024-10-10_13h52.57.827,VISUALSEARCH,2024.2.1,None,2024-10-10 13h53.16.398536 +0530,
38,0,38,[-0.11555555555555555],[0.41555555555555557],[1],[0],[0],[0.8806202739979199],['target'],38,0,38,0,60.42478003499855,,5,60.41230834399903,60.42478003499855,60.42478003499855,0.016972460001852596,61.2933948960017,[-0.11555555555555555],[0.41555555555555557],[1],[0],[0],[0.8806202739979199],['target'],598892,001,2024-10-10_13h52.57.827,VISUALSEARCH,2024.2.1,None,2024-10-10 13h53.16.398536 +0530,
39,0,39,[0.3377777777777778],[0.2866666666666667],[1],[0],[0],[1.043081379000796],['target'],39,0,39,0,61.3214158539995,,5,61.307960314999946,61.3214158539995,61.3214158539995,0.01440357699902961,62.35153611400165,[0.3377777777777778],[0.2866666666666667],[1],[0],[0],[1.043081379000796],['target'],598892,001,2024-10-10_13h52.57.827,VISUALSEARCH,2024.2.1,None,2024-10-10 13h53.16.398536 +0530,
40,0,40,[0.1388888888888889],[0.16],[1],[0],[0],[0.9613893169989751],['target'],40,0,40,0,62.377220733000286,,5,62.36628888799896,62.377220733000286,62.377220733000286,0.014602041999751236,63.328197075999924,[0.1388888888888889],[0.16],[1],[0],[0],[0.9613893169989751],['target'],598892,001,2024-10-10_13h52.57.827,VISUALSEARCH,2024.2.1,None,2024-10-10 13h53.16.398536 +0530,
41,0,41,[-0.4722222222222222],[0.37222222222222223],[1],[0],[0],[1.8478347429991118],['target'],41,0,41,0,63.35664935100067,,5,63.34497807200023,63.35664935100067,63.35664935100067,0.016620828999293735,65.19335041500017,[-0.4722222222222222],[0.37222222222222223],[1],[0],[0],[1.8478347429991118],['target'],598892,001,2024-10-10_13h52.57.827,VISUALSEARCH,2024.2.1,None,2024-10-10 13h53.16.398536 +0530,
42,0,42,[0.28555555555555556],[-0.06111111111111111],[1],[0],[0],[1.3351983399988967],['target'],42,0,42,0,65.21985237199988,,5,65.20806502200139,65.21985237199988,65.21985237199988,0.014570772997103631,66.54375754600187,[0.28555555555555556],[-0.06111111111111111],[1],[0],[0],[1.3351983399988967],['target'],598892,001,2024-10-10_13h52.57.827,VISUALSEARCH,2024.2.1,None,2024-10-10 13h53.16.398536 +0530,
43,0,43,[-0.10555555555555556],[0.26],[1],[0],[0],[1.3789647999983572],['target'],43,0,43,0,66.58866385299916,,10,66.57242952899833,66.58866385299916,66.58866385299916,0.028496672999608563,67.95194496100157,[-0.10555555555555556],[0.26],[1],[0],[0],[1.3789647999983572],['target'],598892,001,2024-10-10_13h52.57.827,VISUALSEARCH,2024.2.1,None,2024-10-10 13h53.16.398536 +0530,
44,0,44,[0.3877777777777778],[0.22],[1],[0],[0],[1.145756337999046],['target'],44,0,44,0,67.97860935200151,,5,67.96719220500017,67.97860935200151,67.97860935200151,0.015050635000079637,69.11339575099919,[0.3877777777777778],[0.22],[1],[0],[0],[1.145756337999046],['target'],598892,001,2024-10-10_13h52.57.827,VISUALSEARCH,2024.2.1,None,2024-10-10 13h53.16.398536 +0530,
45,0,45,[-0.025555555555555557],[-0.44666666666666666],[1],[0],[0],[1.8875203789975785],['target'],45,0,45,0,69.142502693001,,5,69.13059216300098,69.142502693001,69.142502693001,0.017030232997058192,71.0187465199997,[-0.025555555555555557],[-0.44666666666666666],[1],[0],[0],[1.8875203789975785],['target'],598892,001,2024-10-10_13h52.57.827,VISUALSEARCH,2024.2.1,None,2024-10-10 13h53.16.398536 +0530,
46,0,46,[0.17444444444444446],[-0.3977777777777778],[1],[0],[0],[0.9763976889989863],['target'],46,0,46,0,71.04662135599938,,5,71.03581418799877,71.04662135599938,71.04662135599938,0.016883025000424823,72.0131156790012,[0.17444444444444446],[-0.3977777777777778],[1],[0],[0],[0.9763976889989863],['target'],598892,001,2024-10-10_13h52.57.827,VISUALSEARCH,2024.2.1,None,2024-10-10 13h53.16.398536 +0530,
47,0,47,[-0.17222222222222222],[-0.03222222222222222],[1],[0],[0],[1.0884473829974013],['target'],47,0,47,0,72.04325709299883,,5,72.03164236800149,72.04325709299883,72.04325709299883,0.018314450997422682,73.12074608599869,[-0.17222222222222222],[-0.03222222222222222],[1],[0],[0],[1.0884473829974013],['target'],598892,001,2024-10-10_13h52.57.827,VISUALSEARCH,2024.2.1,None,2024-10-10 13h53.16.398536 +0530,
48,0,48,[-0.2511111111111111],[-0.15555555555555556],[1],[0],[0],[1.7983436499998788],['target'],48,0,48,0,73.148312841,,5,73.13618835500165,73.148312841,73.148312841,0.015250617998390226,74.93503615400186,[-0.2511111111111111],[-0.15555555555555556],[1],[0],[0],[1.7983436499998788],['target'],598892,001,2024-10-10_13h52.57.827,VISUALSEARCH,2024.2.1,None,2024-10-10 13h53.16.398536 +0530,
49,0,49,[-0.35333333333333333],[-0.09555555555555556],[1],[0],[0],[1.1763802800014673],['target'],49,0,49,0,74.96303078900019,,5,74.95128538000063,74.96303078900019,74.96303078900019,0.01607213700117427,76.12825760800115,[-0.35333333333333333],[-0.09555555555555556],[1],[0],[0],[1.1763802800014673],['target'],598892,001,2024-10-10_13h52.57.827,VISUALSEARCH,2024.2.1,None,2024-10-10 13h53.16.398536 +0530,
50,0,50,[0.3022222222222222],[0.43666666666666665],[1],[0],[0],[1.8477710520019173],['target'],50,0,50,0,76.15602529800162,,5,76.1448279819997,76.15602529800162,76.15602529800162,0.01639117399827228,77.99346811199939,[0.3022222222222222],[0.43666666666666665],[1],[0],[0],[1.8477710520019173],['target'],598892,001,2024-10-10_13h52.57.827,VISUALSEARCH,2024.2.1,None,2024-10-10 13h53.16.398536 +0530,
51,0,51,[0.41333333333333333],[-0.2911111111111111],[1],[0],[0],[1.5786143069999525],['target'],51,0,51,0,78.02501581199976,,5,78.0137334050014,78.02501581199976,78.02501581199976,0.020015406000311486,79.59298661399953,[0.41333333333333333],[-0.2911111111111111],[1],[0],[0],[1.5786143069999525],['target'],598892,001,2024-10-10_13h52.57.827,VISUALSEARCH,2024.2.1,None,2024-10-10 13h53.16.398536 +0530,
52,0,52,[0.10444444444444445],[0.3388888888888889],[1],[0],[0],[1.3558319739968283],['target'],52,0,52,0,79.62388106700018,,5,79.61154030300168,79.62388106700018,79.62388106700018,0.018354746000113664,80.9679743279994,[0.10444444444444445],[0.3388888888888889],[1],[0],[0],[1.3558319739968283],['target'],598892,001,2024-10-10_13h52.57.827,VISUALSEARCH,2024.2.1,None,2024-10-10 13h53.16.398536 +0530,
53,0,53,[0.15],[0.16444444444444445],[1],[0],[0],[1.1725336560011783],['target'],53,0,53,0,81.01127168400126,,10,80.99620716799836,81.01127168400126,81.01127168400126,0.027972908999799984,82.1694838020012,[0.15],[0.16444444444444445],[1],[0],[0],[1.1725336560011783],['target'],598892,001,2024-10-10_13h52.57.827,VISUALSEARCH,2024.2.1,None,2024-10-10 13h53.16.398536 +0530,
54,0,54,[0.025555555555555557],[0.45222222222222225],[1],[0],[0],[1.278487956002209],['target'],54,0,54,0,82.21336910800164,,10,82.19708608099972,82.21336910800164,82.21336910800164,0.027301664002152393,83.47619951399975,[0.025555555555555557],[0.45222222222222225],[1],[0],[0],[1.278487956002209],['target'],598892,001,2024-10-10_13h52.57.827,VISUALSEARCH,2024.2.1,None,2024-10-10 13h53.16.398536 +0530,
55,0,55,[0.21888888888888888],[0.06],[1],[0],[0],[0.9586877770016144],['target'],55,0,55,0,83.52650172499852,,10,83.51097948100141,83.52650172499852,83.52650172499852,0.03444596199915395,84.47037392999846,[0.21888888888888888],[0.06],[1],[0],[0],[0.9586877770016144],['target'],598892,001,2024-10-10_13h52.57.827,VISUALSEARCH,2024.2.1,None,2024-10-10 13h53.16.398536 +0530,
56,0,56,[-0.01888888888888889],[0.006666666666666667],[1],[0],[0],[2.9104081810000935],[None],56,0,56,0,84.51811696799996,,10,84.50059878200045,84.51811696799996,84.51811696799996,0.029962863998662215,87.41148552300001,[-0.01888888888888889],[0.006666666666666667],[1],[0],[0],[2.9104081810000935],[None],598892,001,2024-10-10_13h52.57.827,VISUALSEARCH,2024.2.1,None,2024-10-10 13h53.16.398536 +0530,
57,0,57,[-0.38555555555555554],[-0.3622222222222222],[1],[0],[0],[1.5337154299995746],['target'],57,0,57,0,87.43841415100178,,5,87.42681407700002,87.43841415100178,87.43841415100178,0.015141528001549887,88.96095229099956,[-0.38555555555555554],[-0.3622222222222222],[1],[0],[0],[1.5337154299995746],['target'],598892,001,2024-10-10_13h52.57.827,VISUALSEARCH,2024.2.1,None,2024-10-10 13h53.16.398536 +0530,
58,0,58,[-0.43666666666666665],[-0.08777777777777777],[1],[0],[0],[1.4015432250016602],['target'],58,0,58,0,88.98830474799979,,5,88.97620459400059,88.98830474799979,88.98830474799979,0.015067383999848971,90.37821640100083,[-0.43666666666666665],[-0.08777777777777777],[1],[0],[0],[1.4015432250016602],['target'],598892,001,2024-10-10_13h52.57.827,VISUALSEARCH,2024.2.1,None,2024-10-10 13h53.16.398536 +0530,
59,0,59,[0.1988888888888889],[0.04777777777777778],[1],[0],[0],[1.38617732000057],['target'],59,0,59,0,90.4218253709987,,10,90.40649773300174,90.4218253709987,90.4218253709987,0.028120999999373453,91.79317088799871,[0.1988888888888889],[0.04777777777777778],[1],[0],[0],[1.38617732000057],['target'],598892,001,2024-10-10_13h52.57.827,VISUALSEARCH,2024.2.1,None,2024-10-10 13h53.16.398536 +0530,
60,0,60,[-0.16555555555555557],[-0.03666666666666667],[1],[0],[0],[1.2987558400018315],['target'],60,0,60,0,91.83621902899904,,10,91.82062576799945,91.83621902899904,91.83621902899904,0.027245629997196374,93.12006720700083,[-0.16555555555555557],[-0.03666666666666667],[1],[0],[0],[1.2987558400018315],['target'],598892,001,2024-10-10_13h52.57.827,VISUALSEARCH,2024.2.1,None,2024-10-10 13h53.16.398536 +0530,
61,0,61,[0.5022222222222222],[0.3377777777777778],[1],[0],[0],[1.5204756429993722],['target'],61,0,61,0,93.16405724099968,,10,93.14795735000007,93.16405724099968,93.16405724099968,0.027706153003236977,94.66919676800171,[0.5022222222222222],[0.3377777777777778],[1],[0],[0],[1.5204756429993722],['target'],598892,001,2024-10-10_13h52.57.827,VISUALSEARCH,2024.2.1,None,2024-10-10 13h53.16.398536 +0530,
62,0,62,[0.2577777777777778],[-0.4288888888888889],[1],[0],[0],[1.4428369849993032],['target'],62,0,62,0,94.71409861700158,,10,94.69814337400021,94.71409861700158,94.71409861700158,0.028662618999078404,96.14167358100167,[0.2577777777777778],[-0.4288888888888889],[1],[0],[0],[1.4428369849993032],['target'],598892,001,2024-10-10_13h52.57.827,VISUALSEARCH,2024.2.1,None,2024-10-10 13h53.16.398536 +0530,
63,0,63,[-0.23444444444444446],[-0.35],[1],[0],[0],[1.4796534050001355],['target'],63,0,63,0,96.19089479800095,,10,96.1748447989994,96.19089479800095,96.19089479800095,0.03287181999985478,97.65519349700116,[-0.23444444444444446],[-0.35],[1],[0],[0],[1.4796534050001355],['target'],598892,001,2024-10-10_13h52.57.827,VISUALSEARCH,2024.2.1,None,2024-10-10 13h53.16.398536 +0530,
64,0,64,[-0.4166666666666667],[0.3888888888888889],[1],[0],[0],[1.8125187940022442],['target'],64,0,64,0,97.70007385500139,,10,97.68432135900002,97.70007385500139,97.70007385500139,0.028877747998194536,99.49725776600098,[-0.4166666666666667],[0.3888888888888889],[1],[0],[0],[1.8125187940022442],['target'],598892,001,2024-10-10_13h52.57.827,VISUALSEARCH,2024.2.1,None,2024-10-10 13h53.16.398536 +0530,
65,0,65,[-0.42444444444444446],[-0.06444444444444444],[1],[0],[0],[1.5306575279973913],['target'],65,0,65,0,99.52660099499917,,5,99.51388983699871,99.52660099499917,99.52660099499917,0.01646245299707516,101.04493451600138,[-0.42444444444444446],[-0.06444444444444444],[1],[0],[0],[1.5306575279973913],['target'],598892,001,2024-10-10_13h52.57.827,VISUALSEARCH,2024.2.1,None,2024-10-10 13h53.16.398536 +0530,
66,0,66,[0.15555555555555556],[-0.31444444444444447],[1],[0],[0],[1.7073861709977791],['target'],66,0,66,0,101.07190997100042,,5,101.06062326599931,101.07190997100042,101.07190997100042,0.015540599000814836,102.76847895899846,[0.15555555555555556],[-0.31444444444444447],[1],[0],[0],[1.7073861709977791],['target'],598892,001,2024-10-10_13h52.57.827,VISUALSEARCH,2024.2.1,None,2024-10-10 13h53.16.398536 +0530,
67,0,67,[-0.43444444444444447],[0.4666666666666667],[1],[0],[0],[2.3149344330013264],['target'],67,0,67,0,102.81387637499938,,10,102.79664292400048,102.81387637499938,102.81387637499938,0.027839311998832272,105.11206812800083,[-0.43444444444444447],[0.4666666666666667],[1],[0],[0],[2.3149344330013264],['target'],598892,001,2024-10-10_13h52.57.827,VISUALSEARCH,2024.2.1,None,2024-10-10 13h53.16.398536 +0530,
68,0,68,[-0.15],[-0.18333333333333332],[1],[0],[0],[1.6605500240002584],['target'],68,0,68,0,105.15814798499923,,10,105.14107257900105,105.15814798499923,105.15814798499923,0.028815334000682924,106.80252771300002,[-0.15],[-0.18333333333333332],[1],[0],[0],[1.6605500240002584],['target'],598892,001,2024-10-10_13h52.57.827,VISUALSEARCH,2024.2.1,None,2024-10-10 13h53.16.398536 +0530,
69,0,69,[0.39],[-0.33444444444444443],[1],[0],[0],[1.6876839910000854],['target'],69,0,69,0,106.84629653500087,,10,106.82947891000003,106.84629653500087,106.84629653500087,0.026632452001649654,108.5176671549998,[0.39],[-0.33444444444444443],[1],[0],[0],[1.6876839910000854],['target'],598892,001,2024-10-10_13h52.57.827,VISUALSEARCH,2024.2.1,None,2024-10-10 13h53.16.398536 +0530,
70,0,70,[0.02],[0.017777777777777778],[1],[0],[0],[1.6903643530022237],['target'],70,0,70,0,108.5455725569991,,5,108.53440550099913,108.5455725569991,108.5455725569991,0.016530272998352302,110.22524790099851,[0.02],[0.017777777777777778],[1],[0],[0],[1.6903643530022237],['target'],598892,001,2024-10-10_13h52.57.827,VISUALSEARCH,2024.2.1,None,2024-10-10 13h53.16.398536 +0530,
71,0,71,[0.20777777777777778],[-0.17222222222222222],[1],[0],[0],[1.1167980589998479],['target'],71,0,71,0,110.27646323299996,,10,110.25681989200166,110.27646323299996,110.27646323299996,0.031348657998023555,111.37412862799829,[0.20777777777777778],[-0.17222222222222222],[1],[0],[0],[1.1167980589998479],['target'],598892,001,2024-10-10_13h52.57.827,VISUALSEARCH,2024.2.1,None,2024-10-10 13h53.16.398536 +0530,
72,0,72,[0.37222222222222223],[-0.2966666666666667],[1],[0],[0],[1.1738011589986854],['target'],72,0,72,0,111.42071538700111,,10,111.4045333139984,111.42071538700111,111.42071538700111,0.03015541700005997,112.57883719299934,[0.37222222222222223],[-0.2966666666666667],[1],[0],[0],[1.1738011589986854],['target'],598892,001,2024-10-10_13h52.57.827,VISUALSEARCH,2024.2.1,None,2024-10-10 13h53.16.398536 +0530,
73,0,73,[-0.21444444444444444],[0.47444444444444445],[1],[0],[0],[1.896855825001694],['target'],73,0,73,0,112.62468366699977,,10,112.6085470149992,112.62468366699977,112.62468366699977,0.029486946001270553,114.50604806200135,[-0.21444444444444444],[0.47444444444444445],[1],[0],[0],[1.896855825001694],['target'],598892,001,2024-10-10_13h52.57.827,VISUALSEARCH,2024.2.1,None,2024-10-10 13h53.16.398536 +0530,
74,0,74,[-0.4077777777777778],[-0.09555555555555556],[1],[0],[0],[1.5390450160011824],['target'],74,0,74,0,114.5326612280005,,5,114.52033314200162,114.5326612280005,114.5326612280005,0.014141554001980694,116.05981597700156,[-0.4077777777777778],[-0.09555555555555556],[1],[0],[0],[1.5390450160011824],['target'],598892,001,2024-10-10_13h52.57.827,VISUALSEARCH,2024.2.1,None,2024-10-10 13h53.16.398536 +0530,
75,0,75,[0.4166666666666667],[-0.31],[1],[0],[0],[1.4899439399996481],['target'],75,0,75,0,116.10459000099945,,10,116.08866807300001,116.10459000099945,116.10459000099945,0.02871543999935966,117.57903486199939,[0.4166666666666667],[-0.31],[1],[0],[0],[1.4899439399996481],['target'],598892,001,2024-10-10_13h52.57.827,VISUALSEARCH,2024.2.1,None,2024-10-10 13h53.16.398536 +0530,
76,0,76,[-0.38333333333333336],[0.38333333333333336],[1],[0],[0],[1.5315262870026345],['target'],76,0,76,0,117.60532273699937,,5,117.5941000870007,117.60532273699937,117.60532273699937,0.014891915998305194,119.12630253899988,[-0.38333333333333336],[0.38333333333333336],[1],[0],[0],[1.5315262870026345],['target'],598892,001,2024-10-10_13h52.57.827,VISUALSEARCH,2024.2.1,None,2024-10-10 13h53.16.398536 +0530,
77,0,77,[-0.07],[-0.14555555555555555],[1],[0],[0],[1.3433187279988488],['target'],77,0,77,0,119.15378392999992,,5,119.1406223160011,119.15378392999992,119.15378392999992,0.01409217799664475,120.48434277400156,[-0.07],[-0.14555555555555555],[1],[0],[0],[1.3433187279988488],['target'],598892,001,2024-10-10_13h52.57.827,VISUALSEARCH,2024.2.1,None,2024-10-10 13h53.16.398536 +0530,
78,0,78,[-0.4111111111111111],[-0.17777777777777778],[1],[0],[0],[1.6044316080005956],['target'],78,0,78,0,120.52763069700086,,10,120.51116580500093,120.52763069700086,120.52763069700086,0.026678049998736242,122.11613319699973,[-0.4111111111111111],[-0.17777777777777778],[1],[0],[0],[1.6044316080005956],['target'],598892,001,2024-10-10_13h52.57.827,VISUALSEARCH,2024.2.1,None,2024-10-10 13h53.16.398536 +0530,
79,0,79,[0.3988888888888889],[0.3111111111111111],[1],[0],[0],[1.4004514109983575],['target'],79,0,79,0,122.14715452699966,,5,122.13485442900128,122.14715452699966,122.14715452699966,0.01846572399881552,123.53622162299871,[0.3988888888888889],[0.3111111111111111],[1],[0],[0],[1.4004514109983575],['target'],598892,001,2024-10-10_13h52.57.827,VISUALSEARCH,2024.2.1,None,2024-10-10 13h53.16.398536 +0530,
80,0,80,[0.4077777777777778],[-0.25555555555555554],[1],[0],[0],[1.5027974850017927],['target'],80,0,80,0,123.58174154600056,,10,123.56495736099896,123.58174154600056,123.58174154600056,0.02856276400052593,125.0685682580006,[0.4077777777777778],[-0.25555555555555554],[1],[0],[0],[1.5027974850017927],['target'],598892,001,2024-10-10_13h52.57.827,VISUALSEARCH,2024.2.1,None,2024-10-10 13h53.16.398536 +0530,
81,0,81,[-0.28],[0.34555555555555556],[1],[0],[0],[1.3260506829974474],['target'],81,0,81,0,125.09412190399962,,5,125.08321245800107,125.09412190399962,125.09412190399962,0.014376064998941729,126.4100019610014,[-0.28],[0.34555555555555556],[1],[0],[0],[1.3260506829974474],['target'],598892,001,2024-10-10_13h52.57.827,VISUALSEARCH,2024.2.1,None,2024-10-10 13h53.16.398536 +0530,
82,0,82,[-0.1511111111111111],[-0.12666666666666668],[1],[0],[0],[1.4047846499997831],['target'],82,0,82,0,126.45748090900088,,10,126.44029937300002,126.45748090900088,126.45748090900088,0.030093115001363913,127.84549592099938,[-0.1511111111111111],[-0.12666666666666668],[1],[0],[0],[1.4047846499997831],['target'],598892,001,2024-10-10_13h52.57.827,VISUALSEARCH,2024.2.1,None,2024-10-10 13h53.16.398536 +0530,
83,0,83,[-0.2588888888888889],[0.4311111111111111],[1],[0],[0],[1.9759329840017017],['target'],83,0,83,0,127.89061594799932,,10,127.87481363400002,127.89061594799932,127.89061594799932,0.029144133997760946,129.85137788900101,[-0.2588888888888889],[0.4311111111111111],[1],[0],[0],[1.9759329840017017],['target'],598892,001,2024-10-10_13h52.57.827,VISUALSEARCH,2024.2.1,None,2024-10-10 13h53.16.398536 +0530,
84,0,84,[-0.3],[-0.4588888888888889],[1],[0],[0],[1.6498680879994936],['target'],84,0,84,0,129.87841467800172,,5,129.86631947299975,129.87841467800172,129.87841467800172,0.014687879000121029,131.51661593400058,[-0.3],[-0.4588888888888889],[1],[0],[0],[1.6498680879994936],['target'],598892,001,2024-10-10_13h52.57.827,VISUALSEARCH,2024.2.1,None,2024-10-10 13h53.16.398536 +0530,
85,0,85,[-0.41],[0.057777777777777775],[1],[0],[0],[1.3071199920013896],['target'],85,0,85,0,131.56115645200043,,10,131.5440197880016,131.56115645200043,131.56115645200043,0.027260618000582326,132.85193012599848,[-0.41],[0.057777777777777775],[1],[0],[0],[1.3071199920013896],['target'],598892,001,2024-10-10_13h52.57.827,VISUALSEARCH,2024.2.1,None,2024-10-10 13h53.16.398536 +0530,
86,0,86,[0.03666666666666667],[0.28444444444444444],[1],[0],[0],[1.255924484001298],['target'],86,0,86,0,132.89540163199854,,10,132.8794575569991,132.89540163199854,132.89540163199854,0.027278278997982852,134.13605595600166,[0.03666666666666667],[0.28444444444444444],[1],[0],[0],[1.255924484001298],['target'],598892,001,2024-10-10_13h52.57.827,VISUALSEARCH,2024.2.1,None,2024-10-10 13h53.16.398536 +0530,
87,0,87,[0.4633333333333333],[-0.3388888888888889],[1],[0],[0],[2.646126623996679],['target'],87,0,87,0,134.17925380399902,,10,134.16322915899946,134.17925380399902,134.17925380399902,0.026991440001438605,136.80996867100112,[0.4633333333333333],[-0.3388888888888889],[1],[0],[0],[2.646126623996679],['target'],598892,001,2024-10-10_13h52.57.827,VISUALSEARCH,2024.2.1,None,2024-10-10 13h53.16.398536 +0530,
88,0,88,[-0.31555555555555553],[0.36444444444444446],[1],[0],[0],[1.9083313810006075],['target'],88,0,88,0,136.83673005699893,,5,136.82531889800157,136.83673005699893,136.83673005699893,0.015152325999224558,138.73413675700067,[-0.31555555555555553],[0.36444444444444446],[1],[0],[0],[1.9083313810006075],['target'],598892,001,2024-10-10_13h52.57.827,VISUALSEARCH,2024.2.1,None,2024-10-10 13h53.16.398536 +0530,
89,0,89,[0.35555555555555557],[0.11222222222222222],[1],[0],[0],[1.7339805840019835],['target'],89,0,89,0,138.77852525499839,,10,138.76241080000182,138.77852525499839,138.77852525499839,0.028108734000852564,140.49693646599917,[0.35555555555555557],[0.11222222222222222],[1],[0],[0],[1.7339805840019835],['target'],598892,001,2024-10-10_13h52.57.827,VISUALSEARCH,2024.2.1,None,2024-10-10 13h53.16.398536 +0530,
90,0,90,[-0.07888888888888888],[0.43666666666666665],[1],[0],[0],[1.5608351549999497],['target'],90,0,90,0,140.52726614100175,,5,140.51431841299927,140.52726614100175,140.52726614100175,0.017176083001686493,142.07558225799949,[-0.07888888888888888],[0.43666666666666665],[1],[0],[0],[1.5608351549999497],['target'],598892,001,2024-10-10_13h52.57.827,VISUALSEARCH,2024.2.1,None,2024-10-10 13h53.16.398536 +0530,
91,0,91,[0.012222222222222223],[-0.4022222222222222],[1],[0],[0],[1.5358595639991108],['target'],91,0,91,0,142.10211233099835,,5,142.08967477600163,142.10211233099835,142.10211233099835,0.013952598001196748,143.62629567600015,[0.012222222222222223],[-0.4022222222222222],[1],[0],[0],[1.5358595639991108],['target'],598892,001,2024-10-10_13h52.57.827,VISUALSEARCH,2024.2.1,None,2024-10-10 13h53.16.398536 +0530,
92,0,92,[0.4911111111111111],[0.13777777777777778],[1],[0],[0],[1.6003874769994582],['target'],92,0,92,0,143.67265209900143,,10,143.6566384910002,143.67265209900143,143.67265209900143,0.030134393000480486,145.25781760099926,[0.4911111111111111],[0.13777777777777778],[1],[0],[0],[1.6003874769994582],['target'],598892,001,2024-10-10_13h52.57.827,VISUALSEARCH,2024.2.1,None,2024-10-10 13h53.16.398536 +0530,
93,0,93,[-0.10666666666666667],[0.38],[1],[0],[0],[1.0526535229982983],['target'],93,0,93,0,145.30652590300087,,10,145.29120251999848,145.30652590300087,145.30652590300087,0.033070590001443634,146.34434668299946,[-0.10666666666666667],[0.38],[1],[0],[0],[1.0526535229982983],['target'],598892,001,2024-10-10_13h52.57.827,VISUALSEARCH,2024.2.1,None,2024-10-10 13h53.16.398536 +0530,
94,0,94,[-0.14666666666666667],[-0.3566666666666667],[1],[0],[0],[1.580065026999364],['target'],94,0,94,0,146.3883104839988,,10,146.37182751300134,146.3883104839988,146.3883104839988,0.02732646900039981,147.95270221399915,[-0.14666666666666667],[-0.3566666666666667],[1],[0],[0],[1.580065026999364],['target'],598892,001,2024-10-10_13h52.57.827,VISUALSEARCH,2024.2.1,None,2024-10-10 13h53.16.398536 +0530,
95,0,95,[-0.1622222222222222],[0.40444444444444444],[1],[0],[0],[1.3310592740017455],['target'],95,0,95,0,147.9963779790014,,10,147.97970966199864,147.9963779790014,147.9963779790014,0.02679839600023115,149.31124619000184,[-0.1622222222222222],[0.40444444444444444],[1],[0],[0],[1.3310592740017455],['target'],598892,001,2024-10-10_13h52.57.827,VISUALSEARCH,2024.2.1,None,2024-10-10 13h53.16.398536 +0530,
96,0,96,[0.2644444444444444],[-0.16444444444444445],[1],[0],[0],[1.3594882289980887],['target'],96,0,96,0,149.33769956299875,,5,149.326060288,149.33769956299875,149.33769956299875,0.014641134002886247,150.6861800430015,[0.2644444444444444],[-0.16444444444444445],[1],[0],[0],[1.3594882289980887],['target'],598892,001,2024-10-10_13h52.57.827,VISUALSEARCH,2024.2.1,None,2024-10-10 13h53.16.398536 +0530,
97,0,97,[0.29333333333333333],[-0.16333333333333333],[1],[0],[0],[0.7417651789983211],['target'],97,0,97,0,150.71654640799898,,5,150.7042755529983,150.71654640799898,150.71654640799898,0.017928293000295525,151.44677308999962,[0.29333333333333333],[-0.16333333333333333],[1],[0],[0],[0.7417651789983211],['target'],598892,001,2024-10-10_13h52.57.827,VISUALSEARCH,2024.2.1,None,2024-10-10 13h53.16.398536 +0530,
98,0,98,[0.45444444444444443],[0.3011111111111111],[1],[0],[0],[1.33415911100019],['target'],98,0,98,0,151.49340631700034,,10,151.47733534299914,151.49340631700034,151.49340631700034,0.030363066001882544,152.81197047200112,[0.45444444444444443],[0.3011111111111111],[1],[0],[0],[1.33415911100019],['target'],598892,001,2024-10-10_13h52.57.827,VISUALSEARCH,2024.2.1,None,2024-10-10 13h53.16.398536 +0530,
99,0,99,[-0.13777777777777778],[-0.3477777777777778],[1],[0],[0],[2.131946245997824],['target'],99,0,99,0,152.8405699399991,,5,152.8275143130013,152.8405699399991,152.8405699399991,0.015371074001450324,154.9600663199999,[-0.13777777777777778],[-0.3477777777777778],[1],[0],[0],[2.131946245997824],['target'],598892,001,2024-10-10_13h52.57.827,VISUALSEARCH,2024.2.1,None,2024-10-10 13h53.16.398536 +0530,
100,0,100,[-0.3277777777777778],[-0.1388888888888889],[1],[0],[0],[1.236104390998662],['target'],100,0,100,0,155.0067628459983,,10,154.9905832330005,155.0067628459983,155.0067628459983,0.03031251699940185,156.2270935560009,[-0.3277777777777778],[-0.1388888888888889],[1],[0],[0],[1.236104390998662],['target'],598892,001,2024-10-10_13h52.57.827,VISUALSEARCH,2024.2.1,None,2024-10-10 13h53.16.398536 +0530,
101,0,101,[-0.24666666666666667],[-0.1711111111111111],[1],[0],[0],[1.1547192600010021],['target'],101,0,101,0,156.27210559499872,,10,156.2559570730009,156.27210559499872,156.27210559499872,0.02871256400248967,157.41110595400096,[-0.24666666666666667],[-0.1711111111111111],[1],[0],[0],[1.1547192600010021],['target'],598892,001,2024-10-10_13h52.57.827,VISUALSEARCH,2024.2.1,None,2024-10-10 13h53.16.398536 +0530,
102,0,102,[0.11888888888888889],[0.47444444444444445],[1],[0],[0],[2.5274803299980704],['target'],102,0,102,0,157.4559127270004,,10,157.4395152770012,157.4559127270004,157.4559127270004,0.028201274002640275,159.9675490539994,[0.11888888888888889],[0.47444444444444445],[1],[0],[0],[2.5274803299980704],['target'],598892,001,2024-10-10_13h52.57.827,VISUALSEARCH,2024.2.1,None,2024-10-10 13h53.16.398536 +0530,
103,0,103,[0.1622222222222222],[-0.28444444444444444],[1],[0],[0],[2.6626576960006787],['target'],103,0,103,0,160.01239839399932,,10,159.9958199169996,160.01239839399932,160.01239839399932,0.028080150001187576,162.65912846799984,[0.1622222222222222],[-0.28444444444444444],[1],[0],[0],[2.6626576960006787],['target'],598892,001,2024-10-10_13h52.57.827,VISUALSEARCH,2024.2.1,None,2024-10-10 13h53.16.398536 +0530,
104,0,104,[-0.31333333333333335],[-0.19333333333333333],[1],[0],[0],[1.3560158130021591],['target'],104,0,104,0,162.68954889499946,,5,162.67747252100162,162.68954889499946,162.68954889499946,0.01810083500095061,164.0340940310016,[-0.31333333333333335],[-0.19333333333333333],[1],[0],[0],[1.3560158130021591],['target'],598892,001,2024-10-10_13h52.57.827,VISUALSEARCH,2024.2.1,None,2024-10-10 13h53.16.398536 +0530,
105,0,105,[0.2911111111111111],[-0.3322222222222222],[1],[0],[0],[1.8069672679994255],['target'],105,0,105,0,164.07726001899937,,10,164.0611922479984,164.07726001899937,164.07726001899937,0.02694900200003758,165.86882284700187,[0.2911111111111111],[-0.3322222222222222],[1],[0],[0],[1.8069672679994255],['target'],598892,001,2024-10-10_13h52.57.827,VISUALSEARCH,2024.2.1,None,2024-10-10 13h53.16.398536 +0530,
106,0,106,[0.025555555555555557],[-0.31777777777777777],[1],[0],[0],[1.1091507880009885],['target'],106,0,106,0,165.89567343700037,,5,165.8830277570014,165.89567343700037,165.89567343700037,0.01402229299856117,166.9930889649986,[0.025555555555555557],[-0.31777777777777777],[1],[0],[0],[1.1091507880009885],['target'],598892,001,2024-10-10_13h52.57.827,VISUALSEARCH,2024.2.1,None,2024-10-10 13h53.16.398536 +0530,
107,0,107,[-0.15222222222222223],[-0.01],[1],[0],[0],[1.0971169180011202],['target'],107,0,107,0,167.0225648509986,,5,167.01118242899975,167.0225648509986,167.0225648509986,0.017899053000292042,168.1087188169986,[-0.15222222222222223],[-0.01],[1],[0],[0],[1.0971169180011202],['target'],598892,001,2024-10-10_13h52.57.827,VISUALSEARCH,2024.2.1,None,2024-10-10 13h53.16.398536 +0530,
108,0,108,[0.0],[-0.37],[1],[0],[0],[1.3678788939978404],['target'],108,0,108,0,168.15166624300036,,10,168.13580711800023,168.15166624300036,168.15166624300036,0.02696766199733247,169.50423597199915,[0.0],[-0.37],[1],[0],[0],[1.3678788939978404],['target'],598892,001,2024-10-10_13h52.57.827,VISUALSEARCH,2024.2.1,None,2024-10-10 13h53.16.398536 +0530,
109,0,109,[-0.3466666666666667],[-0.2288888888888889],[1],[0],[0],[1.6437174269995012],['target'],109,0,109,0,169.5494220239998,,10,169.5320266939998,169.5494220239998,169.5494220239998,0.027574228999583283,171.1761392570006,[-0.3466666666666667],[-0.2288888888888889],[1],[0],[0],[1.6437174269995012],['target'],598892,001,2024-10-10_13h52.57.827,VISUALSEARCH,2024.2.1,None,2024-10-10 13h53.16.398536 +0530,
110,0,110,[0.06222222222222222],[0.03666666666666667],[1],[0],[0],[1.1058070810031495],['target'],110,0,110,0,171.22210199799883,,10,171.20439909500055,171.22210199799883,171.22210199799883,0.028105538000090746,172.31057800800045,[0.06222222222222222],[0.03666666666666667],[1],[0],[0],[1.1058070810031495],['target'],598892,001,2024-10-10_13h52.57.827,VISUALSEARCH,2024.2.1,None,2024-10-10 13h53.16.398536 +0530,
111,0,111,[0.15888888888888889],[-0.41],[1],[0],[0],[1.7726653149984486],['target'],111,0,111,0,172.3553921390012,,10,172.33936824199918,172.3553921390012,172.3553921390012,0.028643391000514384,174.1126700470013,[0.15888888888888889],[-0.41],[1],[0],[0],[1.7726653149984486],['target'],598892,001,2024-10-10_13h52.57.827,VISUALSEARCH,2024.2.1,None,2024-10-10 13h53.16.398536 +0530,
112,0,112,[0.31777777777777777],[0.21],[1],[0],[0],[1.3734928000012587],['target'],112,0,112,0,174.15901029200177,,10,174.14276139700087,174.15901029200177,174.15901029200177,0.029889493001974188,175.516866588001,[0.31777777777777777],[0.21],[1],[0],[0],[1.3734928000012587],['target'],598892,001,2024-10-10_13h52.57.827,VISUALSEARCH,2024.2.1,None,2024-10-10 13h53.16.398536 +0530,
113,0,113,[0.3411111111111111],[0.3422222222222222],[1],[0],[0],[1.0124913010004093],['target'],113,0,113,0,175.5460367550004,,5,175.53257762800058,175.5460367550004,175.5460367550004,0.01554351600134396,176.54559955199875,[0.3411111111111111],[0.3422222222222222],[1],[0],[0],[1.0124913010004093],['target'],598892,001,2024-10-10_13h52.57.827,VISUALSEARCH,2024.2.1,None,2024-10-10 13h53.16.398536 +0530,
114,0,114,[-0.44222222222222224],[0.4444444444444444],[1],[0],[0],[1.3446015629997419],['target'],114,0,114,0,176.57463991300028,,5,176.5616008370016,176.57463991300028,176.57463991300028,0.01582494999820483,177.9068029029986,[-0.44222222222222224],[0.4444444444444444],[1],[0],[0],[1.3446015629997419],['target'],598892,001,2024-10-10_13h52.57.827,VISUALSEARCH,2024.2.1,None,2024-10-10 13h53.16.398536 +0530,
115,0,115,[-0.29555555555555557],[0.11888888888888889],[1],[0],[0],[1.3980050999998639],['target'],115,0,115,0,177.95294891799858,,10,177.93666882300022,177.95294891799858,177.95294891799858,0.02967467100097565,179.33548672300094,[-0.29555555555555557],[0.11888888888888889],[1],[0],[0],[1.3980050999998639],['target'],598892,001,2024-10-10_13h52.57.827,VISUALSEARCH,2024.2.1,None,2024-10-10 13h53.16.398536 +0530,
116,0,116,[-0.11],[0.2388888888888889],[1],[0],[0],[0.8833571519971883],['target'],116,0,116,0,179.36111794300086,,5,179.3495205069994,179.36111794300086,179.36111794300086,0.013842637999914587,180.2335300779996,[-0.11],[0.2388888888888889],[1],[0],[0],[0.8833571519971883],['target'],598892,001,2024-10-10_13h52.57.827,VISUALSEARCH,2024.2.1,None,2024-10-10 13h53.16.398536 +0530,
117,0,117,[0.16111111111111112],[-0.2811111111111111],[1],[0],[0],[2.1198447560018394],['target'],117,0,117,0,180.27945709399864,,10,180.26388618499914,180.27945709399864,180.27945709399864,0.030148944999382365,182.38424796500112,[0.16111111111111112],[-0.2811111111111111],[1],[0],[0],[2.1198447560018394],['target'],598892,001,2024-10-10_13h52.57.827,VISUALSEARCH,2024.2.1,None,2024-10-10 13h53.16.398536 +0530,
118,0,118,[0.2866666666666667],[0.41444444444444445],[1],[0],[0],[2.120940001997951],['target'],118,0,118,0,182.42852123199918,,10,182.41260264800076,182.42852123199918,182.42852123199918,0.028078242001356557,184.53398758099866,[0.2866666666666667],[0.41444444444444445],[1],[0],[0],[2.120940001997951],['target'],598892,001,2024-10-10_13h52.57.827,VISUALSEARCH,2024.2.1,None,2024-10-10 13h53.16.398536 +0530,
119,0,119,[-0.015555555555555555],[-0.2477777777777778],[1],[0],[0],[1.3936646660004044],['target'],119,0,119,0,184.55971182899884,,5,184.5482221780003,184.55971182899884,184.55971182899884,0.013998360998812132,185.94264224200015,[-0.015555555555555555],[-0.2477777777777778],[1],[0],[0],[1.3936646660004044],['target'],598892,001,2024-10-10_13h52.57.827,VISUALSEARCH,2024.2.1,None,2024-10-10 13h53.16.398536 +0530,
120,0,120,[0.2633333333333333],[0.4666666666666667],[1],[0],[0],[1.8136867369976244],['target'],120,0,120,0,185.9749242350008,,5,185.96244229399963,185.9749242350008,185.9749242350008,0.019555342998501146,187.77667671499876,[0.2633333333333333],[0.4666666666666667],[1],[0],[0],[1.8136867369976244],['target'],598892,001,2024-10-10_13h52.57.827,VISUALSEARCH,2024.2.1,None,2024-10-10 13h53.16.398536 +0530,
121,0,121,[-0.38222222222222224],[-0.09],[1],[0],[0],[1.415172591998271],['target'],121,0,121,0,187.80451307399926,,5,187.79230852299952,187.80451307399926,187.80451307399926,0.015488403998460853,189.20807984899875,[-0.38222222222222224],[-0.09],[1],[0],[0],[1.415172591998271],['target'],598892,001,2024-10-10_13h52.57.827,VISUALSEARCH,2024.2.1,None,2024-10-10 13h53.16.398536 +0530,
122,0,122,[-0.35555555555555557],[0.2677777777777778],[1],[0],[0],[1.5531673969999247],['target'],122,0,122,0,189.25479972600078,,10,189.23894182000004,189.25479972600078,189.25479972600078,0.030667721999634523,190.79272166300143,[-0.35555555555555557],[0.2677777777777778],[1],[0],[0],[1.5531673969999247],['target'],598892,001,2024-10-10_13h52.57.827,VISUALSEARCH,2024.2.1,None,2024-10-10 13h53.16.398536 +0530,
123,0,123,[-0.11333333333333333],[0.19333333333333333],[1],[0],[0],[0.9404919389999122],['target'],123,0,123,0,190.8212557250008,,5,190.8086707520015,190.8212557250008,190.8212557250008,0.015737460998934694,191.74963627100078,[-0.11333333333333333],[0.19333333333333333],[1],[0],[0],[0.9404919389999122],['target'],598892,001,2024-10-10_13h52.57.827,VISUALSEARCH,2024.2.1,None,2024-10-10 13h53.16.398536 +0530,
124,0,124,[0.3611111111111111],[0.3877777777777778],[1],[0],[0],[1.2504391069996927],['target'],124,0,124,0,191.7940258130002,,10,191.77742310100075,191.7940258130002,191.7940258130002,0.027640503001748584,193.02827861200058,[0.3611111111111111],[0.3877777777777778],[1],[0],[0],[1.2504391069996927],['target'],598892,001,2024-10-10_13h52.57.827,VISUALSEARCH,2024.2.1,None,2024-10-10 13h53.16.398536 +0530,
125,0,125,[-0.14777777777777779],[-0.18555555555555556],[1],[0],[0],[1.4141794690003735],['target'],125,0,125,0,193.05713301300057,,5,193.04391710599884,193.05713301300057,193.05713301300057,0.015470376001758268,194.4589037379992,[-0.14777777777777779],[-0.18555555555555556],[1],[0],[0],[1.4141794690003735],['target'],598892,001,2024-10-10_13h52.57.827,VISUALSEARCH,2024.2.1,None,2024-10-10 13h53.16.398536 +0530,
126,0,126,[-0.22777777777777777],[-0.10555555555555556],[1],[0],[0],[0.9287634209977114],['target'],126,0,126,0,194.49073600599877,,5,194.47921895200125,194.49073600599877,194.49073600599877,0.0200665750016924,195.4084977220009,[-0.22777777777777777],[-0.10555555555555556],[1],[0],[0],[0.9287634209977114],['target'],598892,001,2024-10-10_13h52.57.827,VISUALSEARCH,2024.2.1,None,2024-10-10 13h53.16.398536 +0530,
127,0,127,[0.4266666666666667],[0.22555555555555556],[1],[0],[0],[1.8383854820021952],['target'],127,0,127,0,195.45433494299868,,10,195.43786230399928,195.45433494299868,195.45433494299868,0.029199714997957926,197.27670524399946,[0.4266666666666667],[0.22555555555555556],[1],[0],[0],[1.8383854820021952],['target'],598892,001,2024-10-10_13h52.57.827,VISUALSEARCH,2024.2.1,None,2024-10-10 13h53.16.398536 +0530,
128,0,128,[-0.18],[0.25],[1],[0],[0],[1.315008208999643],['target'],128,0,128,0,197.30570660300145,,5,197.29268451200187,197.30570660300145,197.30570660300145,0.01582487400082755,198.6083609289999,[-0.18],[0.25],[1],[0],[0],[1.315008208999643],['target'],598892,001,2024-10-10_13h52.57.827,VISUALSEARCH,2024.2.1,None,2024-10-10 13h53.16.398536 +0530,
129,0,129,[-0.1922222222222222],[0.12444444444444444],[1],[0],[0],[2.019535776002158],['target'],129,0,129,0,198.65831601099853,,10,198.64204106599936,198.65831601099853,198.65831601099853,0.0334102239976346,200.66205265900135,[-0.1922222222222222],[0.12444444444444444],[1],[0],[0],[2.019535776002158],['target'],598892,001,2024-10-10_13h52.57.827,VISUALSEARCH,2024.2.1,None,2024-10-10 13h53.16.398536 +0530,
130,0,130,[-0.23],[-0.05444444444444444],[1],[0],[0],[1.4124610479993862],['target'],130,0,130,0,200.70731230800084,,10,200.69026639300137,200.70731230800084,200.70731230800084,0.02801955199902295,202.10318559499865,[-0.23],[-0.05444444444444444],[1],[0],[0],[1.4124610479993862],['target'],598892,001,2024-10-10_13h52.57.827,VISUALSEARCH,2024.2.1,None,2024-10-10 13h53.16.398536 +0530,
131,0,131,[0.3322222222222222],[0.31],[1],[0],[0],[1.67754665600296],['target'],131,0,131,0,202.14553006699862,,10,202.12947773300039,202.14553006699862,202.14553006699862,0.026154201997997006,203.80751076800152,[0.3322222222222222],[0.31],[1],[0],[0],[1.67754665600296],['target'],598892,001,2024-10-10_13h52.57.827,VISUALSEARCH,2024.2.1,None,2024-10-10 13h53.16.398536 +0530,
132,0,132,[-0.4111111111111111],[0.08666666666666667],[1],[0],[0],[1.3711792110007082],['target'],132,0,132,0,203.83517723499972,,5,203.822908017999,203.83517723499972,203.83517723499972,0.015182712002570042,205.1945913290001,[-0.4111111111111111],[0.08666666666666667],[1],[0],[0],[1.3711792110007082],['target'],598892,001,2024-10-10_13h52.57.827,VISUALSEARCH,2024.2.1,None,2024-10-10 13h53.16.398536 +0530,
133,0,133,[0.19666666666666666],[-0.19111111111111112],[1],[0],[0],[3.6443685039994307],['target'],133,0,133,0,205.23851839100098,,10,205.22266155800025,205.23851839100098,205.23851839100098,0.027897256000869675,208.86797935700088,[0.19666666666666666],[-0.19111111111111112],[1],[0],[0],[3.6443685039994307],['target'],598892,001,2024-10-10_13h52.57.827,VISUALSEARCH,2024.2.1,None,2024-10-10 13h53.16.398536 +0530,
134,0,134,[0.34444444444444444],[-0.4022222222222222],[1],[0],[0],[1.3818348929999047],['target'],134,0,134,0,208.9132695849985,,10,208.8958103670011,208.9132695849985,208.9132695849985,0.027536089000932407,210.2781887989986,[0.34444444444444444],[-0.4022222222222222],[1],[0],[0],[1.3818348929999047],['target'],598892,001,2024-10-10_13h52.57.827,VISUALSEARCH,2024.2.1,None,2024-10-10 13h53.16.398536 +0530,
135,0,135,[-0.30444444444444446],[-0.45],[1],[0],[0],[2.1494298399993568],['target'],135,0,135,0,210.32406501199875,,10,210.30821518000084,210.32406501199875,210.32406501199875,0.02982791500107851,212.4581622279984,[-0.30444444444444446],[-0.45],[1],[0],[0],[2.1494298399993568],['target'],598892,001,2024-10-10_13h52.57.827,VISUALSEARCH,2024.2.1,None,2024-10-10 13h53.16.398536 +0530,
136,0,136,[0.31777777777777777],[-0.27666666666666667],[1],[0],[0],[1.4849726730026305],['target'],136,0,136,0,212.48564492700098,,5,212.4732693650003,212.48564492700098,212.48564492700098,0.014907376000337536,213.95895557900076,[0.31777777777777777],[-0.27666666666666667],[1],[0],[0],[1.4849726730026305],['target'],598892,001,2024-10-10_13h52.57.827,VISUALSEARCH,2024.2.1,None,2024-10-10 13h53.16.398536 +0530,
137,0,137,[-0.023333333333333334],[0.31666666666666665],[1],[0],[0],[1.1699341149978864],['target'],137,0,137,0,214.0046433839998,,10,213.9890110330016,214.0046433839998,214.0046433839998,0.02983918000245467,215.15941760699934,[-0.023333333333333334],[0.31666666666666665],[1],[0],[0],[1.1699341149978864],['target'],598892,001,2024-10-10_13h52.57.827,VISUALSEARCH,2024.2.1,None,2024-10-10 13h53.16.398536 +0530,
138,0,138,[-0.14888888888888888],[-0.1811111111111111],[1],[0],[0],[1.4690526250014955],['target'],138,0,138,0,215.18647284899998,,5,215.17398763299934,215.18647284899998,215.18647284899998,0.01441687399710645,216.64355490399976,[-0.14888888888888888],[-0.1811111111111111],[1],[0],[0],[1.4690526250014955],['target'],598892,001,2024-10-10_13h52.57.827,VISUALSEARCH,2024.2.1,None,2024-10-10 13h53.16.398536 +0530,
139,0,139,[-0.22444444444444445],[-0.4166666666666667],[1],[0],[0],[1.3324258559987356],['target'],139,0,139,0,216.67141585599893,,5,216.65940615599902,216.67141585599893,216.67141585599893,0.015685852002206957,217.99247699099942,[-0.22444444444444445],[-0.4166666666666667],[1],[0],[0],[1.3324258559987356],['target'],598892,001,2024-10-10_13h52.57.827,VISUALSEARCH,2024.2.1,None,2024-10-10 13h53.16.398536 +0530,
140,0,140,[0.36777777777777776],[-0.0022222222222222222],[1],[0],[0],[1.1725534789984522],['target'],140,0,140,0,218.0441465440017,,10,218.02773933700155,218.0441465440017,218.0441465440017,0.03500944600091316,219.20118121600171,[0.36777777777777776],[-0.0022222222222222222],[1],[0],[0],[1.1725534789984522],['target'],598892,001,2024-10-10_13h52.57.827,VISUALSEARCH,2024.2.1,None,2024-10-10 13h53.16.398536 +0530,
141,0,141,[-0.39666666666666667],[-0.021111111111111112],[1],[0],[0],[1.713231423000252],['target'],141,0,141,0,219.2461804880004,,10,219.22976506299892,219.2461804880004,219.2461804880004,0.028287419001571834,220.9435144579984,[-0.39666666666666667],[-0.021111111111111112],[1],[0],[0],[1.713231423000252],['target'],598892,001,2024-10-10_13h52.57.827,VISUALSEARCH,2024.2.1,None,2024-10-10 13h53.16.398536 +0530,
142,0,142,[0.41333333333333333],[0.23222222222222222],[1],[0],[0],[1.6035615620021417],['target'],142,0,142,0,220.96914640799878,,5,220.95800582399897,220.96914640799878,220.96914640799878,0.014343216000270331,222.56208978300128,[0.41333333333333333],[0.23222222222222222],[1],[0],[0],[1.6035615620021417],['target'],598892,001,2024-10-10_13h52.57.827,VISUALSEARCH,2024.2.1,None,2024-10-10 13h53.16.398536 +0530,
143,0,143,[0.3322222222222222],[0.09777777777777778],[1],[0],[0],[1.2925302500007092],['target'],143,0,143,0,222.60803123699952,,10,222.5919232519991,222.60803123699952,222.60803123699952,0.029660636999324197,223.8851958689993,[0.3322222222222222],[0.09777777777777778],[1],[0],[0],[1.2925302500007092],['target'],598892,001,2024-10-10_13h52.57.827,VISUALSEARCH,2024.2.1,None,2024-10-10 13h53.16.398536 +0530,
144,0,144,[-0.48777777777777775],[-0.18333333333333332],[1],[0],[0],[1.7884256969991839],['target'],144,0,144,0,223.9280069310007,,10,223.91131403300096,223.9280069310007,223.9280069310007,0.02596280299985665,225.70063785800085,[-0.48777777777777775],[-0.18333333333333332],[1],[0],[0],[1.7884256969991839],['target'],598892,001,2024-10-10_13h52.57.827,VISUALSEARCH,2024.2.1,None,2024-10-10 13h53.16.398536 +0530,
145,0,145,[0.08555555555555555],[-0.20666666666666667],[1],[0],[0],[1.4580729650006106],['target'],145,0,145,0,225.72849462500017,,5,225.71710807199997,225.72849462500017,225.72849462500017,0.016166632001841208,227.1756900750006,[0.08555555555555555],[-0.20666666666666667],[1],[0],[0],[1.4580729650006106],['target'],598892,001,2024-10-10_13h52.57.827,VISUALSEARCH,2024.2.1,None,2024-10-10 13h53.16.398536 +0530,
146,0,146,[-0.19333333333333333],[0.14777777777777779],[1],[0],[0],[1.0579695270025695],['target'],146,0,146,0,227.20204913899943,,5,227.19020622699827,227.20204913899943,227.20204913899943,0.014378832001966657,228.24862095299977,[-0.19333333333333333],[0.14777777777777779],[1],[0],[0],[1.0579695270025695],['target'],598892,001,2024-10-10_13h52.57.827,VISUALSEARCH,2024.2.1,None,2024-10-10 13h53.16.398536 +0530,
147,0,147,[-0.1988888888888889],[0.028888888888888888],[1],[0],[0],[1.0583231759992486],['target'],147,0,147,0,228.2748568829993,,5,228.26345545400181,228.2748568829993,228.2748568829993,0.014686667000205489,229.32229418100178,[-0.1988888888888889],[0.028888888888888888],[1],[0],[0],[1.0583231759992486],['target'],598892,001,2024-10-10_13h52.57.827,VISUALSEARCH,2024.2.1,None,2024-10-10 13h53.16.398536 +0530,
148,0,148,[-0.44555555555555554],[0.41888888888888887],[1],[0],[0],[1.3536308650000137],['target'],148,0,148,0,229.35135692499898,,5,229.33907129499858,229.35135692499898,229.35135692499898,0.016571216998272575,230.69329357199967,[-0.44555555555555554],[0.41888888888888887],[1],[0],[0],[1.3536308650000137],['target'],598892,001,2024-10-10_13h52.57.827,VISUALSEARCH,2024.2.1,None,2024-10-10 13h53.16.398536 +0530,
149,0,149,[0.34555555555555556],[0.47],[1],[0],[0],[1.722057249997306],['target'],149,0,149,0,230.72287756600053,,5,230.71110573400074,230.72287756600053,230.72287756600053,0.017639300996961538,232.43382776100043,[0.34555555555555556],[0.47],[1],[0],[0],[1.722057249997306],['target'],598892,001,2024-10-10_13h52.57.827,VISUALSEARCH,2024.2.1,None,2024-10-10 13h53.16.398536 +0530,
150,0,150,[-0.23666666666666666],[-0.2288888888888889],[1],[0],[0],[1.5878115389969025],['target'],150,0,150,0,232.4783966870018,,10,232.46181126300144,232.4783966870018,232.4783966870018,0.02775259700138122,234.05005050000182,[-0.23666666666666666],[-0.2288888888888889],[1],[0],[0],[1.5878115389969025],['target'],598892,001,2024-10-10_13h52.57.827,VISUALSEARCH,2024.2.1,None,2024-10-10 13h53.16.398536 +0530,
151,0,151,[0.1811111111111111],[-0.21555555555555556],[1],[0],[0],[1.350910859000578],['target'],151,0,151,0,234.07722920599917,,5,234.06465323500015,234.07722920599917,234.07722920599917,0.01436146600099164,235.41632982699957,[0.1811111111111111],[-0.21555555555555556],[1],[0],[0],[1.350910859000578],['target'],598892,001,2024-10-10_13h52.57.827,VISUALSEARCH,2024.2.1,None,2024-10-10 13h53.16.398536 +0530,
152,0,152,[-0.2111111111111111],[0.4811111111111111],[1],[0],[0],[2.5766333760002453],['target'],152,0,152,0,235.443284175999,,5,235.43178894399898,235.443284175999,235.443284175999,0.015238594001857564,238.00888686799954,[-0.2111111111111111],[0.4811111111111111],[1],[0],[0],[2.5766333760002453],['target'],598892,001,2024-10-10_13h52.57.827,VISUALSEARCH,2024.2.1,None,2024-10-10 13h53.16.398536 +0530,
153,0,153,[-0.016666666666666666],[-0.34],[1],[0],[0],[1.6483711520013458],['target'],153,0,153,0,238.05376583999896,,10,238.03582327700133,238.05376583999896,238.05376583999896,0.026770364998810692,239.6848740759997,[-0.016666666666666666],[-0.34],[1],[0],[0],[1.6483711520013458],['target'],598892,001,2024-10-10_13h52.57.827,VISUALSEARCH,2024.2.1,None,2024-10-10 13h53.16.398536 +0530,
154,0,154,[0.12],[-0.36333333333333334],[1],[0],[0],[2.1416102160001174],['target'],154,0,154,0,239.71302370299964,,5,239.69931122100024,239.71302370299964,239.71302370299964,0.014253133998863632,241.841338749,[0.12],[-0.36333333333333334],[1],[0],[0],[2.1416102160001174],['target'],598892,001,2024-10-10_13h52.57.827,VISUALSEARCH,2024.2.1,None,2024-10-10 13h53.16.398536 +0530,
155,0,155,[-0.31666666666666665],[0.044444444444444446],[1],[0],[0],[1.0533443200001784],['target'],155,0,155,0,241.86616070899981,,5,241.85494295099852,241.86616070899981,241.86616070899981,0.013473675000568619,242.90871332499955,[-0.31666666666666665],[0.044444444444444446],[1],[0],[0],[1.0533443200001784],['target'],598892,001,2024-10-10_13h52.57.827,VISUALSEARCH,2024.2.1,None,2024-10-10 13h53.16.398536 +0530,
156,0,156,[0.29777777777777775],[-0.4211111111111111],[1],[0],[0],[2.2223386830009986],['target'],156,0,156,0,242.954147501001,,10,242.938064416001,242.954147501001,242.954147501001,0.029213300000265008,245.16083477899883,[0.29777777777777775],[-0.4211111111111111],[1],[0],[0],[2.2223386830009986],['target'],598892,001,2024-10-10_13h52.57.827,VISUALSEARCH,2024.2.1,None,2024-10-10 13h53.16.398536 +0530,
157,0,157,[0.31],[0.4677777777777778],[1],[0],[0],[2.619869798003492],['target'],157,0,157,0,245.20675577200018,,10,245.18925495800067,245.20675577200018,245.20675577200018,0.02824647400120739,247.8096129609985,[0.31],[0.4677777777777778],[1],[0],[0],[2.619869798003492],['target'],598892,001,2024-10-10_13h52.57.827,VISUALSEARCH,2024.2.1,None,2024-10-10 13h53.16.398536 +0530,
158,0,158,[-0.33555555555555555],[0.06],[1],[0],[0],[1.728876653000043],['target'],158,0,158,0,247.85329498400097,,10,247.8372463199994,247.85329498400097,247.85329498400097,0.02745555999717908,249.5668981480012,[-0.33555555555555555],[0.06],[1],[0],[0],[1.728876653000043],['target'],598892,001,2024-10-10_13h52.57.827,VISUALSEARCH,2024.2.1,None,2024-10-10 13h53.16.398536 +0530,
159,0,159,[-0.4311111111111111],[-0.42444444444444446],[1],[0],[0],[2.0292372000003525],['target'],159,0,159,0,249.59265244400012,,5,249.58097889800047,249.59265244400012,249.59265244400012,0.013828666997142136,251.61075879399868,[-0.4311111111111111],[-0.42444444444444446],[1],[0],[0],[2.0292372000003525],['target'],598892,001,2024-10-10_13h52.57.827,VISUALSEARCH,2024.2.1,None,2024-10-10 13h53.16.398536 +0530,
160,0,160,[0.043333333333333335],[0.25],[1],[0],[0],[1.8172296929988079],['target'],160,0,160,0,251.65861230899827,,10,251.64225566700043,251.65861230899827,251.65861230899827,0.031333775998064084,253.45992873900104,[0.043333333333333335],[0.25],[1],[0],[0],[1.8172296929988079],['target'],598892,001,2024-10-10_13h52.57.827,VISUALSEARCH,2024.2.1,None,2024-10-10 13h53.16.398536 +0530,
161,0,161,[0.3477777777777778],[0.10111111111111111],[1],[0],[0],[0.9065575470012845],['target'],161,0,161,0,253.4867722630006,,5,253.47478387500087,253.4867722630006,253.4867722630006,0.014683358000183944,254.38175807399966,[0.3477777777777778],[0.10111111111111111],[1],[0],[0],[0.9065575470012845],['target'],598892,001,2024-10-10_13h52.57.827,VISUALSEARCH,2024.2.1,None,2024-10-10 13h53.16.398536 +0530,
162,0,162,[-0.034444444444444444],[0.39222222222222225],[1],[0],[0],[1.385863857998629],['target'],162,0,162,0,254.4272598009993,,10,254.41017017099875,254.4272598009993,254.4272598009993,0.02826190400082851,255.79652114499913,[-0.034444444444444444],[0.39222222222222225],[1],[0],[0],[1.385863857998629],['target'],598892,001,2024-10-10_13h52.57.827,VISUALSEARCH,2024.2.1,None,2024-10-10 13h53.16.398536 +0530,
163,0,163,[0.3411111111111111],[0.08222222222222222],[1],[0],[0],[1.1430284670022957],['target'],163,0,163,0,255.84296995299883,,10,255.82570671400026,255.84296995299883,255.84296995299883,0.028971749998163432,256.9695726309983,[0.3411111111111111],[0.08222222222222222],[1],[0],[0],[1.1430284670022957],['target'],598892,001,2024-10-10_13h52.57.827,VISUALSEARCH,2024.2.1,None,2024-10-10 13h53.16.398536 +0530,
164,0,164,[-0.38333333333333336],[0.44333333333333336],[1],[0],[0],[1.6537065459997393],['target'],164,0,164,0,256.9982507550012,,5,256.98632983100106,256.9982507550012,256.9982507550012,0.016489819998241728,258.6408293940003,[-0.38333333333333336],[0.44333333333333336],[1],[0],[0],[1.6537065459997393],['target'],598892,001,2024-10-10_13h52.57.827,VISUALSEARCH,2024.2.1,None,2024-10-10 13h53.16.398536 +0530,
165,0,165,[-0.3422222222222222],[-0.13333333333333333],[1],[0],[0],[1.2809409000001324],['target'],165,0,165,0,258.67061615000057,,5,258.6587734060013,258.67061615000057,258.67061615000057,0.017756769000698114,259.94013348299995,[-0.3422222222222222],[-0.13333333333333333],[1],[0],[0],[1.2809409000001324],['target'],598892,001,2024-10-10_13h52.57.827,VISUALSEARCH,2024.2.1,None,2024-10-10 13h53.16.398536 +0530,
166,0,166,[-0.49444444444444446],[-0.4111111111111111],[1],[0],[0],[1.752827257001627],['target'],166,0,166,0,259.96572670399837,,5,259.9544812159984,259.96572670399837,259.96572670399837,0.014209983000910142,261.70788511900173,[-0.49444444444444446],[-0.4111111111111111],[1],[0],[0],[1.752827257001627],['target'],598892,001,2024-10-10_13h52.57.827,VISUALSEARCH,2024.2.1,None,2024-10-10 13h53.16.398536 +0530,
167,0,167,[0.17777777777777778],[0.15444444444444444],[1],[0],[0],[1.3194188029992802],['target'],167,0,167,0,261.73600243200053,,5,261.72319129099924,261.73600243200053,261.73600243200053,0.015142023999942467,263.0430250770005,[0.17777777777777778],[0.15444444444444444],[1],[0],[0],[1.3194188029992802],['target'],598892,001,2024-10-10_13h52.57.827,VISUALSEARCH,2024.2.1,None,2024-10-10 13h53.16.398536 +0530,
168,0,168,[0.09666666666666666],[0.13111111111111112],[1],[0],[0],[1.0924485169998661],['target'],168,0,168,0,263.0697157050017,,5,263.05847024600007,263.0697157050017,263.0697157050017,0.015324029001931194,264.1516448729999,[0.09666666666666666],[0.13111111111111112],[1],[0],[0],[1.0924485169998661],['target'],598892,001,2024-10-10_13h52.57.827,VISUALSEARCH,2024.2.1,None,2024-10-10 13h53.16.398536 +0530,
169,0,169,[-0.4222222222222222],[0.44555555555555554],[1],[0],[0],[2.5243428879985004],['target'],169,0,169,0,264.1817201320009,,5,264.16882794699995,264.1817201320009,264.1817201320009,0.01697667900225497,266.6937186639989,[-0.4222222222222222],[0.44555555555555554],[1],[0],[0],[2.5243428879985004],['target'],598892,001,2024-10-10_13h52.57.827,VISUALSEARCH,2024.2.1,None,2024-10-10 13h53.16.398536 +0530,
170,0,170,[-0.042222222222222223],[0.1411111111111111],[1],[0],[0],[1.2714220470006694],['target'],170,0,170,0,266.73774418800167,,10,266.72176049799964,266.73774418800167,266.73774418800167,0.027896566996787442,267.99364577600136,[-0.042222222222222223],[0.1411111111111111],[1],[0],[0],[1.2714220470006694],['target'],598892,001,2024-10-10_13h52.57.827,VISUALSEARCH,2024.2.1,None,2024-10-10 13h53.16.398536 +0530,
171,0,171,[0.24333333333333335],[0.47333333333333333],[1],[0],[0],[1.7520897699978377],['target'],171,0,171,0,268.03822344700166,,10,268.02244918699944,268.03822344700166,268.03822344700166,0.028626216000702698,269.7749605179997,[0.24333333333333335],[0.47333333333333333],[1],[0],[0],[1.7520897699978377],['target'],598892,001,2024-10-10_13h52.57.827,VISUALSEARCH,2024.2.1,None,2024-10-10 13h53.16.398536 +0530,
172,0,172,[0.06],[-0.4266666666666667],[1],[0],[0],[1.294201176999195],['target'],172,0,172,0,269.8006631729986,,5,269.78927831200053,269.8006631729986,269.8006631729986,0.014166618002491305,271.08412024800054,[0.06],[-0.4266666666666667],[1],[0],[0],[1.294201176999195],['target'],598892,001,2024-10-10_13h52.57.827,VISUALSEARCH,2024.2.1,None,2024-10-10 13h53.16.398536 +0530,
173,0,173,[-0.21],[-0.05444444444444444],[1],[0],[0],[1.3207762040001398],['target'],173,0,173,0,271.12946528500106,,10,271.11208177799926,271.12946528500106,271.12946528500106,0.027796868998848367,272.43352254899946,[-0.21],[-0.05444444444444444],[1],[0],[0],[1.3207762040001398],['target'],598892,001,2024-10-10_13h52.57.827,VISUALSEARCH,2024.2.1,None,2024-10-10 13h53.16.398536 +0530,
174,0,174,[-0.3688888888888889],[0.2111111111111111],[1],[0],[0],[1.2697701920005784],['target'],174,0,174,0,272.4811951590018,,10,272.46225177499946,272.4811951590018,272.4811951590018,0.028476843999669654,273.7325344210003,[-0.3688888888888889],[0.2111111111111111],[1],[0],[0],[1.2697701920005784],['target'],598892,001,2024-10-10_13h52.57.827,VISUALSEARCH,2024.2.1,None,2024-10-10 13h53.16.398536 +0530,
175,0,175,[-0.3288888888888889],[0.12666666666666668],[1],[0],[0],[1.2695662689984601],['target'],175,0,175,0,273.7599809329986,,5,273.74738113499916,273.7599809329986,273.7599809329986,0.014688916999148205,275.0176246560004,[-0.3288888888888889],[0.12666666666666668],[1],[0],[0],[1.2695662689984601],['target'],598892,001,2024-10-10_13h52.57.827,VISUALSEARCH,2024.2.1,None,2024-10-10 13h53.16.398536 +0530,
176,0,176,[-0.1322222222222222],[-0.4722222222222222],[1],[0],[0],[1.7862227600016922],['target'],176,0,176,0,275.06141314699926,,10,275.0447932499992,275.06141314699926,275.06141314699926,0.02703377400030149,276.83146973199837,[-0.1322222222222222],[-0.4722222222222222],[1],[0],[0],[1.7862227600016922],['target'],598892,001,2024-10-10_13h52.57.827,VISUALSEARCH,2024.2.1,None,2024-10-10 13h53.16.398536 +0530,
177,0,177,[0.35],[-0.21444444444444444],[1],[0],[0],[1.4138698919996386],['target'],177,0,177,0,276.85904325700176,,5,276.8460542520006,276.85904325700176,276.85904325700176,0.014303188996564131,278.26041484600137,[0.35],[-0.21444444444444444],[1],[0],[0],[1.4138698919996386],['target'],598892,001,2024-10-10_13h52.57.827,VISUALSEARCH,2024.2.1,None,2024-10-10 13h53.16.398536 +0530,
178,0,178,[0.3011111111111111],[-0.19444444444444445],[1],[0],[0],[1.073188508002204],['target'],178,0,178,0,278.30751524399966,,10,278.29136416500114,278.30751524399966,278.30751524399966,0.03078645899950061,279.3651161480011,[0.3011111111111111],[-0.19444444444444445],[1],[0],[0],[1.073188508002204],['target'],598892,001,2024-10-10_13h52.57.827,VISUALSEARCH,2024.2.1,None,2024-10-10 13h53.16.398536 +0530,
179,0,179,[-0.022222222222222223],[0.45111111111111113],[1],[0],[0],[1.649930862000474],['target'],179,0,179,0,279.39210973399895,,5,279.38090525200096,279.39210973399895,279.39210973399895,0.015586913999868557,281.0314758079985,[-0.022222222222222223],[0.45111111111111113],[1],[0],[0],[1.649930862000474],['target'],598892,001,2024-10-10_13h52.57.827,VISUALSEARCH,2024.2.1,None,2024-10-10 13h53.16.398536 +0530,
180,0,180,[-0.3844444444444444],[0.11666666666666667],[1],[0],[0],[1.5723236339981668],['target'],180,0,180,0,281.0762333620005,,10,281.060061477001,281.0762333620005,281.0762333620005,0.028383308002958074,282.63317000900133,[-0.3844444444444444],[0.11666666666666667],[1],[0],[0],[1.5723236339981668],['target'],598892,001,2024-10-10_13h52.57.827,VISUALSEARCH,2024.2.1,None,2024-10-10 13h53.16.398536 +0530,
181,0,181,[-0.4444444444444444],[0.1711111111111111],[1],[0],[0],[1.023776125999575],['target'],181,0,181,0,282.6626135869992,,5,282.64962593699966,282.6626135869992,282.6626135869992,0.016050065998570062,283.67386039900157,[-0.4444444444444444],[0.1711111111111111],[1],[0],[0],[1.023776125999575],['target'],598892,001,2024-10-10_13h52.57.827,VISUALSEARCH,2024.2.1,None,2024-10-10 13h53.16.398536 +0530,
182,0,182,[-0.014444444444444444],[0.4533333333333333],[1],[0],[0],[1.3345893350015103],['target'],182,0,182,0,283.70191476000036,,5,283.6884434720014,283.70191476000036,283.70191476000036,0.014464848001807695,285.0235538829984,[-0.014444444444444444],[0.4533333333333333],[1],[0],[0],[1.3345893350015103],['target'],598892,001,2024-10-10_13h52.57.827,VISUALSEARCH,2024.2.1,None,2024-10-10 13h53.16.398536 +0530,
183,0,183,[0.3477777777777778],[0.33111111111111113],[1],[0],[0],[1.0421043999995163],['target'],183,0,183,0,285.0676923760002,,10,285.05155608100176,285.0676923760002,285.0676923760002,0.027838321002491284,286.0941321729988,[0.3477777777777778],[0.33111111111111113],[1],[0],[0],[1.0421043999995163],['target'],598892,001,2024-10-10_13h52.57.827,VISUALSEARCH,2024.2.1,None,2024-10-10 13h53.16.398536 +0530,
184,0,184,[0.4011111111111111],[-0.11777777777777777],[1],[0],[0],[1.1170304940023925],['target'],184,0,184,0,286.12207449999914,,5,286.1097295539985,286.12207449999914,286.12207449999914,0.015423587999976007,287.2272228619986,[0.4011111111111111],[-0.11777777777777777],[1],[0],[0],[1.1170304940023925],['target'],598892,001,2024-10-10_13h52.57.827,VISUALSEARCH,2024.2.1,None,2024-10-10 13h53.16.398536 +0530,
185,0,185,[-0.18555555555555556],[-0.35],[1],[0],[0],[1.8260381740001321],['target'],185,0,185,0,287.2717762200009,,10,287.2561698870013,287.2717762200009,287.2717762200009,0.02878717099883943,289.0834152610005,[-0.18555555555555556],[-0.35],[1],[0],[0],[1.8260381740001321],['target'],598892,001,2024-10-10_13h52.57.827,VISUALSEARCH,2024.2.1,None,2024-10-10 13h53.16.398536 +0530,
186,0,186,[-0.4166666666666667],[-0.03111111111111111],[1],[0],[0],[1.244251730000542],['target'],186,0,186,0,289.1333489889985,,10,289.1168748150012,289.1333489889985,289.1333489889985,0.03302524500031723,290.3615867230001,[-0.4166666666666667],[-0.03111111111111111],[1],[0],[0],[1.244251730000542],['target'],598892,001,2024-10-10_13h52.57.827,VISUALSEARCH,2024.2.1,None,2024-10-10 13h53.16.398536 +0530,
187,0,187,[-0.08222222222222222],[0.2788888888888889],[1],[0],[0],[1.2471934249988408],['target'],187,0,187,0,290.38961126199865,,5,290.37778124300166,290.38961126199865,290.38961126199865,0.015996873000403866,291.62547872399955,[-0.08222222222222222],[0.2788888888888889],[1],[0],[0],[1.2471934249988408],['target'],598892,001,2024-10-10_13h52.57.827,VISUALSEARCH,2024.2.1,None,2024-10-10 13h53.16.398536 +0530,
188,0,188,[0.18777777777777777],[-0.28888888888888886],[1],[0],[0],[1.2107694119986263],['target'],188,0,188,0,291.6707045510011,,10,291.654361334,291.6707045510011,291.6707045510011,0.02871599299760419,292.8658037159985,[0.18777777777777777],[-0.28888888888888886],[1],[0],[0],[1.2107694119986263],['target'],598892,001,2024-10-10_13h52.57.827,VISUALSEARCH,2024.2.1,None,2024-10-10 13h53.16.398536 +0530,
189,0,189,[-0.07555555555555556],[0.31333333333333335],[1],[0],[0],[1.3060080709983595],['target'],189,0,189,0,292.89829042199926,,5,292.88506501400116,292.89829042199926,292.89829042199926,0.01901286800057278,294.1914956059991,[-0.07555555555555556],[0.31333333333333335],[1],[0],[0],[1.3060080709983595],['target'],598892,001,2024-10-10_13h52.57.827,VISUALSEARCH,2024.2.1,None,2024-10-10 13h53.16.398536 +0530,
190,0,190,[-0.17555555555555555],[-0.044444444444444446],[1],[0],[0],[1.48479788899931],['target'],190,0,190,0,294.2372157210011,,10,294.22080549599923,294.2372157210011,294.2372157210011,0.029172810001909966,295.70612123400133,[-0.17555555555555555],[-0.044444444444444446],[1],[0],[0],[1.48479788899931],['target'],598892,001,2024-10-10_13h52.57.827,VISUALSEARCH,2024.2.1,None,2024-10-10 13h53.16.398536 +0530,
191,0,191,[0.21222222222222223],[-0.4166666666666667],[1],[0],[0],[2.1389674120000564],['target'],191,0,191,0,295.7502976600008,,10,295.7339938660007,295.7502976600008,295.7502976600008,0.02766641899870592,297.87342659799833,[0.21222222222222223],[-0.4166666666666667],[1],[0],[0],[2.1389674120000564],['target'],598892,001,2024-10-10_13h52.57.827,VISUALSEARCH,2024.2.1,None,2024-10-10 13h53.16.398536 +0530,
192,0,192,[0.2],[-0.4266666666666667],[1],[0],[0],[0.9746631369998795],['target'],192,0,192,0,297.91654235700116,,10,297.90031610000005,297.91654235700116,297.91654235700116,0.026689637001254596,298.87536547299896,[0.2],[-0.4266666666666667],[1],[0],[0],[0.9746631369998795],['target'],598892,001,2024-10-10_13h52.57.827,VISUALSEARCH,2024.2.1,None,2024-10-10 13h53.16.398536 +0530,
193,0,193,[-0.32],[-0.30333333333333334],[1],[0],[0],[1.280288952999399],['target'],193,0,193,0,298.9197958449986,,10,298.90392881200023,298.9197958449986,298.9197958449986,0.028411200997652486,300.18476310500046,[-0.32],[-0.30333333333333334],[1],[0],[0],[1.280288952999399],['target'],598892,001,2024-10-10_13h52.57.827,VISUALSEARCH,2024.2.1,None,2024-10-10 13h53.16.398536 +0530,
194,0,194,[-0.14333333333333334],[0.18444444444444444],[1],[0],[0],[1.156823309000174],['target'],194,0,194,0,300.2125572030018,,5,300.20093392700073,300.2125572030018,300.2125572030018,0.01593989200046053,301.35844062600154,[-0.14333333333333334],[0.18444444444444444],[1],[0],[0],[1.156823309000174],['target'],598892,001,2024-10-10_13h52.57.827,VISUALSEARCH,2024.2.1,None,2024-10-10 13h53.16.398536 +0530,
195,0,195,[0.30666666666666664],[-0.15333333333333332],[1],[0],[0],[1.3809336269987398],['target'],195,0,195,0,301.38731243299844,,5,301.3755339909985,301.38731243299844,301.38731243299844,0.016887410001800163,302.75717656599954,[0.30666666666666664],[-0.15333333333333332],[1],[0],[0],[1.3809336269987398],['target'],598892,001,2024-10-10_13h52.57.827,VISUALSEARCH,2024.2.1,None,2024-10-10 13h53.16.398536 +0530,
196,0,196,[-0.22555555555555556],[0.48777777777777775],[1],[0],[0],[1.2308351829997264],['target'],196,0,196,0,302.7898008939992,,5,302.7781570420011,302.7898008939992,302.7898008939992,0.020725326001411304,304.0096318950018,[-0.22555555555555556],[0.48777777777777775],[1],[0],[0],[1.2308351829997264],['target'],598892,001,2024-10-10_13h52.57.827,VISUALSEARCH,2024.2.1,None,2024-10-10 13h53.16.398536 +0530,
197,0,197,[-0.025555555555555557],[0.19111111111111112],[1],[0],[0],[1.1946885399993334],['target'],197,0,197,0,304.0386917270007,,5,304.02636003299995,304.0386917270007,304.0386917270007,0.016561923999688588,305.2216077269986,[-0.025555555555555557],[0.19111111111111112],[1],[0],[0],[1.1946885399993334],['target'],598892,001,2024-10-10_13h52.57.827,VISUALSEARCH,2024.2.1,None,2024-10-10 13h53.16.398536 +0530,
198,0,198,[0.45],[-0.30444444444444446],[1],[0],[0],[1.4692452019990014],['target'],198,0,198,0,305.25138313999923,,5,305.2390546150018,305.25138313999923,305.25138313999923,0.017238225998880807,306.7087225789983,[0.45],[-0.30444444444444446],[1],[0],[0],[1.4692452019990014],['target'],598892,001,2024-10-10_13h52.57.827,VISUALSEARCH,2024.2.1,None,2024-10-10 13h53.16.398536 +0530,
199,0,199,[0.27444444444444444],[-0.08],[1],[0],[0],[0.8427707420014485],['target'],199,0,199,0,306.7525962860018,,10,306.73676229600096,306.7525962860018,306.7525962860018,0.027902343001187546,307.5800368199998,[0.27444444444444444],[-0.08],[1],[0],[0],[0.8427707420014485],['target'],598892,001,2024-10-10_13h52.57.827,VISUALSEARCH,2024.2.1,None,2024-10-10 13h53.16.398536 +0530,
