reward_today,future_reward,delay,thisN,thisTrialN,thisRepN,key_resp.keys,key_resp.rt,key_resp.duration,trials.thisRepN,trials.thisTrialN,trials.thisN,trials.thisIndex,thisRow.t,notes,trial.started,fixation.started,text.started,key_resp.started,fixation.stopped,trial.stopped,trials.key_resp.keys,trials.key_resp.rt,trials.key_resp.duration,participant,session,date,expName,psychopyVersion,frameRate,expStart,
15,35,13,0,0,0,l,4.979051653994247,None,0,0,0,1,0.09032157500041649,,0.07872696999402251,0.09032157500041649,1.0116941059968667,1.0116941059968667,1.088659909000853,6.021765277997474,l,4.979051653994247,None,698285,001,2024-11-16_12h42.00.981,DelayDiscountingExperiment,2024.2.1,89.64746823124996,2024-11-16 12h42.35.942400 +0530,
27,50,21,1,1,0,l,4.007207732007373,None,0,1,1,2,6.053138545001275,,6.028022852988215,6.053138545001275,7.013741367991315,7.013741367991315,7.048507018000237,11.024106932993163,l,4.007207732007373,None,698285,001,2024-11-16_12h42.00.981,DelayDiscountingExperiment,2024.2.1,89.64746823124996,2024-11-16 12h42.35.942400 +0530,
40,55,62,2,2,0,t,2.7513645739963977,None,0,2,2,3,11.043552563991398,,11.031466436994378,11.043552563991398,12.022625135999988,12.022625135999988,12.038846511990414,14.784428105995175,t,2.7513645739963977,None,698285,001,2024-11-16_12h42.00.981,DelayDiscountingExperiment,2024.2.1,89.64746823124996,2024-11-16 12h42.35.942400 +0530,
67,75,119,3,3,0,t,2.9019643219944555,None,0,3,3,5,14.802484111991362,,14.791350751998834,14.802484111991362,15.783245564001845,15.783245564001845,15.802140849002171,18.69277231799788,t,2.9019643219944555,None,698285,001,2024-11-16_12h42.00.981,DelayDiscountingExperiment,2024.2.1,89.64746823124996,2024-11-16 12h42.35.942400 +0530,
78,80,162,4,4,0,t,3.730580553994514,None,0,4,4,6,18.70734529699257,,18.69940112499171,18.70734529699257,19.689284129999578,19.689284129999578,19.731609372989624,23.42460933899565,t,3.730580553994514,None,698285,001,2024-11-16_12h42.00.981,DelayDiscountingExperiment,2024.2.1,89.64746823124996,2024-11-16 12h42.35.942400 +0530,
11,30,7,5,5,0,l,2.3441829540097388,None,0,5,5,0,23.436730155997793,,23.428802558992174,23.436730155997793,24.42271025099035,24.42271025099035,24.431254625000292,26.770417224994162,l,2.3441829540097388,None,698285,001,2024-11-16_12h42.00.981,DelayDiscountingExperiment,2024.2.1,89.64746823124996,2024-11-16 12h42.35.942400 +0530,
49,60,89,6,6,0,t,2.544692045004922,None,0,6,6,4,26.786218575987732,,26.77567261699005,26.786218575987732,27.76489498600131,27.76489498600131,27.78160828098771,30.317343314993195,t,2.544692045004922,None,698285,001,2024-11-16_12h42.00.981,DelayDiscountingExperiment,2024.2.1,89.64746823124996,2024-11-16 12h42.35.942400 +0530,
15,35,13,7,0,1,l,3.2788782809948316,None,1,0,7,1,30.331512434990145,,30.322002827000688,30.331512434990145,31.315114525001263,31.315114525001263,31.323230436988524,34.59944993098907,l,3.2788782809948316,None,698285,001,2024-11-16_12h42.00.981,DelayDiscountingExperiment,2024.2.1,89.64746823124996,2024-11-16 12h42.35.942400 +0530,
11,30,7,8,1,1,l,1.785670441997354,None,1,1,8,0,34.61199203100114,,34.603917806001846,34.61199203100114,35.589338656995096,35.589338656995096,35.61548839499301,37.38347734398849,l,1.785670441997354,None,698285,001,2024-11-16_12h42.00.981,DelayDiscountingExperiment,2024.2.1,89.64746823124996,2024-11-16 12h42.35.942400 +0530,
27,50,21,9,2,1,l,3.4993586279888405,None,1,2,9,2,37.39681588100211,,37.38791278399003,37.39681588100211,38.38140186599048,38.38140186599048,38.38881276200118,41.883975441000075,l,3.4993586279888405,None,698285,001,2024-11-16_12h42.00.981,DelayDiscountingExperiment,2024.2.1,89.64746823124996,2024-11-16 12h42.35.942400 +0530,
78,80,162,10,3,1,t,1.765606024011504,None,1,3,10,6,41.896681290993,,41.88815608200093,41.896681290993,42.88169675599784,42.88169675599784,42.8893825809937,44.6503634529945,t,1.765606024011504,None,698285,001,2024-11-16_12h42.00.981,DelayDiscountingExperiment,2024.2.1,89.64746823124996,2024-11-16 12h42.35.942400 +0530,
40,55,62,11,4,1,t,1.703067189999274,None,1,4,11,3,44.66457521599659,,44.654979888990056,44.66457521599659,45.6482046309975,45.6482046309975,45.65471804900153,47.35831593599869,t,1.703067189999274,None,698285,001,2024-11-16_12h42.00.981,DelayDiscountingExperiment,2024.2.1,89.64746823124996,2024-11-16 12h42.35.942400 +0530,
49,60,89,12,5,1,t,2.603264116012724,None,1,5,12,4,47.374499653000385,,47.364436028001364,47.374499653000385,48.35555468600069,48.35555468600069,48.3720763859892,50.984128104988486,t,2.603264116012724,None,698285,001,2024-11-16_12h42.00.981,DelayDiscountingExperiment,2024.2.1,89.64746823124996,2024-11-16 12h42.35.942400 +0530,
67,75,119,13,6,1,t,1.788864881003974,None,1,6,13,5,50.99948199899518,,50.98948526100139,50.99948199899518,51.98156717699021,51.98156717699021,52.00046020100126,53.773807557998225,t,1.788864881003974,None,698285,001,2024-11-16_12h42.00.981,DelayDiscountingExperiment,2024.2.1,89.64746823124996,2024-11-16 12h42.35.942400 +0530,
67,75,119,14,0,2,t,1.459294423009851,None,2,0,14,5,53.78452320898941,,53.77421018399764,53.78452320898941,54.773018382999,54.773018382999,54.784152182997786,56.24179495299177,t,1.459294423009851,None,698285,001,2024-11-16_12h42.00.981,DelayDiscountingExperiment,2024.2.1,89.64746823124996,2024-11-16 12h42.35.942400 +0530,
15,35,13,15,1,2,l,1.926198482993641,None,2,1,15,1,56.255921827993006,,56.247862427990185,56.255921827993006,57.23880638999981,57.23880638999981,57.247647340991534,59.16786537699227,l,1.926198482993641,None,698285,001,2024-11-16_12h42.00.981,DelayDiscountingExperiment,2024.2.1,89.64746823124996,2024-11-16 12h42.35.942400 +0530,
78,80,162,16,2,2,t,1.8833525660011219,None,2,2,16,6,59.18160797099699,,59.17253587600135,59.18160797099699,60.16438637499232,60.16438637499232,60.17240347398911,62.050848995000706,t,1.8833525660011219,None,698285,001,2024-11-16_12h42.00.981,DelayDiscountingExperiment,2024.2.1,89.64746823124996,2024-11-16 12h42.35.942400 +0530,
49,60,89,17,3,2,t,3.8012825889891246,None,2,3,17,4,62.06416564999381,,62.05574708999484,62.06416564999381,63.046656024991535,63.046656024991535,63.05495430198789,66.85124192498915,t,3.8012825889891246,None,698285,001,2024-11-16_12h42.00.981,DelayDiscountingExperiment,2024.2.1,89.64746823124996,2024-11-16 12h42.35.942400 +0530,
11,30,7,18,4,2,l,4.572429181003827,None,2,4,18,0,66.86543397099013,,66.8565044709976,66.86543397099013,67.86462744999153,67.86462744999153,67.88180883399036,72.44188639399363,l,4.572429181003827,None,698285,001,2024-11-16_12h42.00.981,DelayDiscountingExperiment,2024.2.1,89.64746823124996,2024-11-16 12h42.35.942400 +0530,
40,55,62,19,5,2,t,2.058163371999399,None,2,5,19,3,72.45482549899316,,72.44705336299376,72.45482549899316,73.44030982299591,73.44030982299591,73.44962559499254,75.50838082098926,t,2.058163371999399,None,698285,001,2024-11-16_12h42.00.981,DelayDiscountingExperiment,2024.2.1,89.64746823124996,2024-11-16 12h42.35.942400 +0530,
27,50,21,20,6,2,l,1.9170321459969273,None,2,6,20,2,75.52426553299301,,75.51422900299076,75.52426553299301,76.506031522993,76.506031522993,76.53132806999201,78.43303679100063,l,1.9170321459969273,None,698285,001,2024-11-16_12h42.00.981,DelayDiscountingExperiment,2024.2.1,89.64746823124996,2024-11-16 12h42.35.942400 +0530,
78,80,162,21,0,3,t,1.844857835007133,None,3,0,21,6,78.44658964099654,,78.43688348100113,78.44658964099654,79.43105006800033,79.43105006800033,79.43844013298803,81.28334973299934,t,1.844857835007133,None,698285,001,2024-11-16_12h42.00.981,DelayDiscountingExperiment,2024.2.1,89.64746823124996,2024-11-16 12h42.35.942400 +0530,
67,75,119,22,1,3,t,6.276998953995644,None,3,1,22,5,81.29670039999473,,81.28773025400005,81.29670039999473,82.280194373001,82.280194373001,82.28879808099009,88.56827632700151,t,6.276998953995644,None,698285,001,2024-11-16_12h42.00.981,DelayDiscountingExperiment,2024.2.1,89.64746823124996,2024-11-16 12h42.35.942400 +0530,
49,60,89,23,2,3,t,1.568164241994964,None,3,2,23,4,88.58140338199155,,88.57224657999177,88.58140338199155,89.56264581398864,89.56264581398864,89.5793615319999,91.13277549699706,t,1.568164241994964,None,698285,001,2024-11-16_12h42.00.981,DelayDiscountingExperiment,2024.2.1,89.64746823124996,2024-11-16 12h42.35.942400 +0530,
11,30,7,24,3,3,l,1.2007697420049226,None,3,3,24,0,91.1475911919988,,91.1359021949902,91.1475911919988,92.17171963099099,92.17171963099099,92.17171963099099,93.38400051699136,l,1.2007697420049226,None,698285,001,2024-11-16_12h42.00.981,DelayDiscountingExperiment,2024.2.1,89.64746823124996,2024-11-16 12h42.35.942400 +0530,
15,35,13,25,4,3,l,1.323354398002266,None,3,4,25,1,93.39800535100221,,93.38908302500204,93.39800535100221,94.3807067250018,94.3807067250018,94.38797688100021,95.70739598499495,l,1.323354398002266,None,698285,001,2024-11-16_12h42.00.981,DelayDiscountingExperiment,2024.2.1,89.64746823124996,2024-11-16 12h42.35.942400 +0530,
27,50,21,26,5,3,t,2.0479207419994054,None,3,5,26,2,95.72052370499296,,95.71251727300114,95.72052370499296,96.70511320899823,96.70511320899823,96.71390640299069,98.75721166998846,t,2.0479207419994054,None,698285,001,2024-11-16_12h42.00.981,DelayDiscountingExperiment,2024.2.1,89.64746823124996,2024-11-16 12h42.35.942400 +0530,
40,55,62,27,6,3,l,1.837729639999452,None,3,6,27,3,98.77164034498855,,98.76201208800194,98.77164034498855,99.75531117299397,99.75531117299397,99.76347044599243,101.59979088600085,l,1.837729639999452,None,698285,001,2024-11-16_12h42.00.981,DelayDiscountingExperiment,2024.2.1,89.64746823124996,2024-11-16 12h42.35.942400 +0530,
11,30,7,28,0,4,t,1.6516638010070892,None,4,0,28,0,101.6138329069945,,101.604126523991,101.6138329069945,102.5902639029955,102.5902639029955,102.61489250099112,104.25014088799071,t,1.6516638010070892,None,698285,001,2024-11-16_12h42.00.981,DelayDiscountingExperiment,2024.2.1,89.64746823124996,2024-11-16 12h42.35.942400 +0530,
15,35,13,29,1,4,l,2.2427301259886008,None,4,1,29,1,104.26302383300208,,104.25441422099539,104.26302383300208,105.24637280499155,105.24637280499155,105.25468675099546,107.49939783899754,l,2.2427301259886008,None,698285,001,2024-11-16_12h42.00.981,DelayDiscountingExperiment,2024.2.1,89.64746823124996,2024-11-16 12h42.35.942400 +0530,
67,75,119,30,2,4,t,2.0735391759953927,None,4,2,30,5,107.51227548999304,,107.50343658898782,107.51227548999304,108.49563809100073,108.49563809100073,108.5040077399899,110.5736892749992,t,2.0735391759953927,None,698285,001,2024-11-16_12h42.00.981,DelayDiscountingExperiment,2024.2.1,89.64746823124996,2024-11-16 12h42.35.942400 +0530,
49,60,89,31,3,4,t,2.9335596180026187,None,4,3,31,4,110.58616299199639,,110.57813278399408,110.58616299199639,111.57298688299488,111.57298688299488,111.5845826369914,114.51623700199707,t,2.9335596180026187,None,698285,001,2024-11-16_12h42.00.981,DelayDiscountingExperiment,2024.2.1,89.64746823124996,2024-11-16 12h42.35.942400 +0530,
78,80,162,32,4,4,t,1.9926674390007975,None,4,4,32,6,114.53007641699514,,114.5204230209929,114.53007641699514,115.51303257999825,115.51303257999825,115.52103083999828,117.51561211899389,t,1.9926674390007975,None,698285,001,2024-11-16_12h42.00.981,DelayDiscountingExperiment,2024.2.1,89.64746823124996,2024-11-16 12h42.35.942400 +0530,
27,50,21,33,5,4,l,1.9914053090033121,None,4,5,33,2,117.5292101399973,,117.5195941849961,117.5292101399973,118.51378648899845,118.51378648899845,118.52323751398944,120.51946272500209,l,1.9914053090033121,None,698285,001,2024-11-16_12h42.00.981,DelayDiscountingExperiment,2024.2.1,89.64746823124996,2024-11-16 12h42.35.942400 +0530,
40,55,62,34,6,4,t,1.6318953419977333,None,4,6,34,3,120.53048585599754,,120.52345034199243,120.53048585599754,121.51627901000029,121.51627901000029,121.53067413099052,123.1582765839994,t,1.6318953419977333,None,698285,001,2024-11-16_12h42.00.981,DelayDiscountingExperiment,2024.2.1,89.64746823124996,2024-11-16 12h42.35.942400 +0530,
11,30,7,35,0,5,l,1.8093769170081941,None,5,0,35,0,123.1739800409996,,123.16495552199194,123.1739800409996,124.15475166999386,124.15475166999386,124.18120929598808,125.96650996999233,l,1.8093769170081941,None,698285,001,2024-11-16_12h42.00.981,DelayDiscountingExperiment,2024.2.1,89.64746823124996,2024-11-16 12h42.35.942400 +0530,
49,60,89,36,1,5,t,3.6839528900018195,None,5,1,36,4,125.9805754830013,,125.97079640800075,125.9805754830013,126.96264886499557,126.96264886499557,126.97875554500206,130.65140294899174,t,3.6839528900018195,None,698285,001,2024-11-16_12h42.00.981,DelayDiscountingExperiment,2024.2.1,89.64746823124996,2024-11-16 12h42.35.942400 +0530,
78,80,162,37,2,5,t,1.5914391440019244,None,5,2,37,6,130.66482321999501,,130.6560609099979,130.66482321999501,131.64709055799176,131.64709055799176,131.66356229998928,133.2417472429952,t,1.5914391440019244,None,698285,001,2024-11-16_12h42.00.981,DelayDiscountingExperiment,2024.2.1,89.64746823124996,2024-11-16 12h42.35.942400 +0530,
40,55,62,38,3,5,t,1.4912131060118554,None,5,3,38,3,133.25615576498967,,133.2470490049891,133.25615576498967,134.23922873199626,134.23922873199626,134.24865574899013,135.73367320898979,t,1.4912131060118554,None,698285,001,2024-11-16_12h42.00.981,DelayDiscountingExperiment,2024.2.1,89.64746823124996,2024-11-16 12h42.35.942400 +0530,
27,50,21,39,4,5,t,2.0566168039949844,None,5,4,39,2,135.74676302299486,,135.73835343499377,135.74676302299486,136.73021080499166,136.73021080499166,136.7398299119959,138.79984223999782,t,2.0566168039949844,None,698285,001,2024-11-16_12h42.00.981,DelayDiscountingExperiment,2024.2.1,89.64746823124996,2024-11-16 12h42.35.942400 +0530,
15,35,13,40,5,5,l,1.4498893979907734,None,5,5,40,1,138.81385293698986,,138.80436440798803,138.81385293698986,139.7967698579887,139.7967698579887,139.8042895809922,141.24951376998797,l,1.4498893979907734,None,698285,001,2024-11-16_12h42.00.981,DelayDiscountingExperiment,2024.2.1,89.64746823124996,2024-11-16 12h42.35.942400 +0530,
67,75,119,41,6,5,t,1.5855722249980317,None,5,6,41,5,141.26275902499037,,141.25351688198862,141.26275902499037,142.2468272489932,142.2468272489932,142.25511580400052,143.84010853499058,t,1.5855722249980317,None,698285,001,2024-11-16_12h42.00.981,DelayDiscountingExperiment,2024.2.1,89.64746823124996,2024-11-16 12h42.35.942400 +0530,
11,30,7,42,0,6,l,2.9438802049990045,None,6,0,42,0,143.85182470499421,,143.844103919997,143.85182470499421,144.83777643699432,144.83777643699432,144.84599315800006,147.79044275799242,l,2.9438802049990045,None,698285,001,2024-11-16_12h42.00.981,DelayDiscountingExperiment,2024.2.1,89.64746823124996,2024-11-16 12h42.35.942400 +0530,
27,50,21,43,1,6,l,4.042405380008859,None,6,1,43,2,147.8040268600016,,147.79557738799485,147.8040268600016,148.78738150199933,148.78738150199933,148.79657809100172,152.83243032699102,l,4.042405380008859,None,698285,001,2024-11-16_12h42.00.981,DelayDiscountingExperiment,2024.2.1,89.64746823124996,2024-11-16 12h42.35.942400 +0530,
15,35,13,44,2,6,l,3.921323304006364,None,6,2,44,1,152.84662405899144,,152.83658758099773,152.84662405899144,153.83014375499624,153.83014375499624,153.83717842999613,157.757127260993,l,3.921323304006364,None,698285,001,2024-11-16_12h42.00.981,DelayDiscountingExperiment,2024.2.1,89.64746823124996,2024-11-16 12h42.35.942400 +0530,
49,60,89,45,3,6,t,2.455192558991257,None,6,3,45,4,157.7706669709878,,157.7624871279986,157.7706669709878,158.75365293199138,158.75365293199138,158.76223989999562,161.21639457299898,t,2.455192558991257,None,698285,001,2024-11-16_12h42.00.981,DelayDiscountingExperiment,2024.2.1,89.64746823124996,2024-11-16 12h42.35.942400 +0530,
78,80,162,46,4,6,l,1.9360662680119276,None,6,4,46,6,161.23070597699552,,161.2213439969928,161.23070597699552,162.21250674499606,162.21250674499606,162.24627878399042,164.15547796599276,l,1.9360662680119276,None,698285,001,2024-11-16_12h42.00.981,DelayDiscountingExperiment,2024.2.1,89.64746823124996,2024-11-16 12h42.35.942400 +0530,
40,55,62,47,5,6,l,1.510088759008795,None,6,5,47,3,164.16721747799602,,164.15871240998968,164.16721747799602,165.1559553929983,165.1559553929983,165.16695189599704,166.67308962499374,l,1.510088759008795,None,698285,001,2024-11-16_12h42.00.981,DelayDiscountingExperiment,2024.2.1,89.64746823124996,2024-11-16 12h42.35.942400 +0530,
67,75,119,48,6,6,t,3.645978740998544,None,6,6,48,5,166.68590985699848,,166.67800021299627,166.68590985699848,167.6712727080012,167.6712727080012,167.6791687590012,171.32254688699322,t,3.645978740998544,None,698285,001,2024-11-16_12h42.00.981,DelayDiscountingExperiment,2024.2.1,89.64746823124996,2024-11-16 12h42.35.942400 +0530,
78,80,162,49,0,7,t,2.874729289993411,None,7,0,49,6,171.33407692999754,,171.32604910299415,171.33407692999754,172.32143217099656,172.32143217099656,172.32940833798784,175.19957750198955,t,2.874729289993411,None,698285,001,2024-11-16_12h42.00.981,DelayDiscountingExperiment,2024.2.1,89.64746823124996,2024-11-16 12h42.35.942400 +0530,
67,75,119,50,1,7,t,1.511132348998217,None,7,1,50,5,175.2125333599979,,175.20392967699445,175.2125333599979,176.1965165110014,176.1965165110014,176.20485662699502,177.7153000010003,t,1.511132348998217,None,698285,001,2024-11-16_12h42.00.981,DelayDiscountingExperiment,2024.2.1,89.64746823124996,2024-11-16 12h42.35.942400 +0530,
49,60,89,51,2,7,t,1.5179856820032,None,7,2,51,4,177.72873779499787,,177.71919906299445,177.72873779499787,178.71255148599448,178.71255148599448,178.72134218999417,180.24009942098928,t,1.5179856820032,None,698285,001,2024-11-16_12h42.00.981,DelayDiscountingExperiment,2024.2.1,89.64746823124996,2024-11-16 12h42.35.942400 +0530,
11,30,7,52,3,7,l,5.3925285739969695,None,7,3,52,0,180.25299826299306,,180.24520678799308,180.25299826299306,181.23690428199188,181.23690428199188,181.24615718099813,186.63256831599574,l,5.3925285739969695,None,698285,001,2024-11-16_12h42.00.981,DelayDiscountingExperiment,2024.2.1,89.64746823124996,2024-11-16 12h42.35.942400 +0530,
27,50,21,53,4,7,l,5.891088224001578,None,7,4,53,2,186.65091975199175,,186.64050158699683,186.65091975199175,187.6457305799995,187.6457305799995,187.66389717999846,193.53970870499325,l,5.891088224001578,None,698285,001,2024-11-16_12h42.00.981,DelayDiscountingExperiment,2024.2.1,89.64746823124996,2024-11-16 12h42.35.942400 +0530,
40,55,62,54,5,7,t,1.9009382040094351,None,7,5,54,3,193.5532403959951,,193.54526355999405,193.5532403959951,194.54766839399235,194.54766839399235,194.54766839399235,196.45503837199067,t,1.9009382040094351,None,698285,001,2024-11-16_12h42.00.981,DelayDiscountingExperiment,2024.2.1,89.64746823124996,2024-11-16 12h42.35.942400 +0530,
15,35,13,55,6,7,l,21.045237372993142,None,7,6,55,1,196.4671887000004,,196.45868341099413,196.4671887000004,197.4539955049986,197.4539955049986,197.4796686490008,218.51588843199715,l,21.045237372993142,None,698285,001,2024-11-16_12h42.00.981,DelayDiscountingExperiment,2024.2.1,89.64746823124996,2024-11-16 12h42.35.942400 +0530,
78,80,162,56,0,8,t,1.6784829320095014,None,8,0,56,6,218.52903473399056,,218.52008156898955,218.52903473399056,219.5112439479999,219.5112439479999,219.52820151399646,221.1984755579906,t,1.6784829320095014,None,698285,001,2024-11-16_12h42.00.981,DelayDiscountingExperiment,2024.2.1,89.64746823124996,2024-11-16 12h42.35.942400 +0530,
67,75,119,57,1,8,t,3.1379164840036537,None,8,1,57,5,221.2114414349926,,221.20245353000064,221.2114414349926,222.19592224199732,222.19592224199732,222.20373863399436,225.34810136799933,t,3.1379164840036537,None,698285,001,2024-11-16_12h42.00.981,DelayDiscountingExperiment,2024.2.1,89.64746823124996,2024-11-16 12h42.35.942400 +0530,
49,60,89,58,2,8,l,2.2335965649981517,None,8,2,58,4,225.36284088400134,,225.35346146799566,225.36284088400134,226.3624934059917,226.3624934059917,226.38025834599102,228.59882037599164,l,2.2335965649981517,None,698285,001,2024-11-16_12h42.00.981,DelayDiscountingExperiment,2024.2.1,89.64746823124996,2024-11-16 12h42.35.942400 +0530,
40,55,62,59,3,8,t,2.567041263988358,None,8,3,59,3,228.61160472099436,,228.60306597599993,228.61160472099436,229.59436499299773,229.59436499299773,229.6028018329962,232.16492643899983,t,2.567041263988358,None,698285,001,2024-11-16_12h42.00.981,DelayDiscountingExperiment,2024.2.1,89.64746823124996,2024-11-16 12h42.35.942400 +0530,
11,30,7,60,4,8,l,1.879782707997947,None,8,4,60,0,232.17873375599447,,232.16850332600006,232.17873375599447,233.16176068899222,233.16176068899222,233.16997145899222,235.04863544099499,l,1.879782707997947,None,698285,001,2024-11-16_12h42.00.981,DelayDiscountingExperiment,2024.2.1,89.64746823124996,2024-11-16 12h42.35.942400 +0530,
27,50,21,61,5,8,l,2.9420389070000965,None,8,5,61,2,235.06179610198888,,235.0527559859911,235.06179610198888,236.04573328098923,236.04573328098923,236.0533930239908,238.9976050289988,l,2.9420389070000965,None,698285,001,2024-11-16_12h42.00.981,DelayDiscountingExperiment,2024.2.1,89.64746823124996,2024-11-16 12h42.35.942400 +0530,
15,35,13,62,6,8,l,1.6403788609895855,None,8,6,62,1,239.0111551269947,,239.0017546119925,239.0111551269947,239.99552242799837,239.99552242799837,240.00370821700199,241.63909638598852,l,1.6403788609895855,None,698285,001,2024-11-16_12h42.00.981,DelayDiscountingExperiment,2024.2.1,89.64746823124996,2024-11-16 12h42.35.942400 +0530,
67,75,119,63,0,9,t,1.7081421309994766,None,9,0,63,5,241.65356054599397,,241.64521858999797,241.65356054599397,242.63667030399665,242.63667030399665,242.66185374998895,244.34797556999547,t,1.7081421309994766,None,698285,001,2024-11-16_12h42.00.981,DelayDiscountingExperiment,2024.2.1,89.64746823124996,2024-11-16 12h42.35.942400 +0530,
11,30,7,64,1,9,l,2.0103984760062303,None,9,1,64,0,244.36159907199908,,244.35208223600057,244.36159907199908,245.3625145059923,245.3625145059923,245.3625145059923,247.39838768298796,l,2.0103984760062303,None,698285,001,2024-11-16_12h42.00.981,DelayDiscountingExperiment,2024.2.1,89.64746823124996,2024-11-16 12h42.35.942400 +0530,
40,55,62,65,2,9,l,10.105518932003179,None,9,2,65,3,247.41208495599858,,247.40270668599987,247.41208495599858,248.39378474999103,248.39378474999103,248.41251486899273,258.50537328099017,l,10.105518932003179,None,698285,001,2024-11-16_12h42.00.981,DelayDiscountingExperiment,2024.2.1,89.64746823124996,2024-11-16 12h42.35.942400 +0530,
49,60,89,66,3,9,t,1.8530719970003702,None,9,3,66,4,258.5188719180005,,258.51106407798943,258.5188719180005,259.50270260199613,259.50270260199613,259.51167917899147,261.38184711299255,t,1.8530719970003702,None,698285,001,2024-11-16_12h42.00.981,DelayDiscountingExperiment,2024.2.1,89.64746823124996,2024-11-16 12h42.35.942400 +0530,
78,80,162,67,4,9,t,3.302185583001119,None,9,4,67,6,261.3976209409884,,261.3874910789891,261.3976209409884,262.37701606399787,262.37701606399787,262.39439971499087,265.69116757599113,t,3.302185583001119,None,698285,001,2024-11-16_12h42.00.981,DelayDiscountingExperiment,2024.2.1,89.64746823124996,2024-11-16 12h42.35.942400 +0530,
15,35,13,68,5,9,l,5.757990585989319,None,9,5,68,1,265.7020626109879,,265.69571519299643,265.7020626109879,266.68624176998856,266.68624176998856,266.69494540899177,272.44717148999916,l,5.757990585989319,None,698285,001,2024-11-16_12h42.00.981,DelayDiscountingExperiment,2024.2.1,89.64746823124996,2024-11-16 12h42.35.942400 +0530,
27,50,21,69,6,9,l,3.9344439879932906,None,9,6,69,2,272.4598020689882,,272.45133892098966,272.4598020689882,273.4448429789918,273.4448429789918,273.4527306819946,277.38822239,l,3.9344439879932906,None,698285,001,2024-11-16_12h42.00.981,DelayDiscountingExperiment,2024.2.1,89.64746823124996,2024-11-16 12h42.35.942400 +0530,
67,75,119,70,0,10,t,2.0327150840021204,None,10,0,70,5,277.40196171199204,,277.3937157469918,277.40196171199204,278.38593447399035,278.38593447399035,278.39756204099103,280.4213282569981,t,2.0327150840021204,None,698285,001,2024-11-16_12h42.00.981,DelayDiscountingExperiment,2024.2.1,89.64746823124996,2024-11-16 12h42.35.942400 +0530,
40,55,62,71,1,10,t,3.3568633959948784,None,10,1,71,3,280.4353685800015,,280.4272136169893,280.4353685800015,281.4181758170016,281.4181758170016,281.42668039399723,284.7802432569879,t,3.3568633959948784,None,698285,001,2024-11-16_12h42.00.981,DelayDiscountingExperiment,2024.2.1,89.64746823124996,2024-11-16 12h42.35.942400 +0530,
27,50,21,72,2,10,l,3.4479345660074614,None,10,2,72,2,284.7940880269889,,284.78468306899595,284.7940880269889,285.7705467199994,285.7705467199994,285.7960366240004,289.22193519599386,l,3.4479345660074614,None,698285,001,2024-11-16_12h42.00.981,DelayDiscountingExperiment,2024.2.1,89.64746823124996,2024-11-16 12h42.35.942400 +0530,
49,60,89,73,3,10,t,3.219126509997295,None,10,3,73,4,289.2382161860005,,289.2281573229993,289.2382161860005,290.219081518997,290.219081518997,290.24506839599053,293.447067570989,t,3.219126509997295,None,698285,001,2024-11-16_12h42.00.981,DelayDiscountingExperiment,2024.2.1,89.64746823124996,2024-11-16 12h42.35.942400 +0530,
15,35,13,74,4,10,l,1.7849678879865678,None,10,4,74,1,293.4602680789976,,293.4515805999981,293.4602680789976,294.4436458259879,294.4436458259879,294.45255778399587,296.2326250549959,l,1.7849678879865678,None,698285,001,2024-11-16_12h42.00.981,DelayDiscountingExperiment,2024.2.1,89.64746823124996,2024-11-16 12h42.35.942400 +0530,
11,30,7,75,5,10,l,1.7076584540045587,None,10,5,75,0,296.2456628939981,,296.23626273799164,296.2456628939981,297.2446894179884,297.2446894179884,297.26249077299144,298.9559164379898,l,1.7076584540045587,None,698285,001,2024-11-16_12h42.00.981,DelayDiscountingExperiment,2024.2.1,89.64746823124996,2024-11-16 12h42.35.942400 +0530,
78,80,162,76,6,10,t,3.087444573000539,None,10,6,76,6,298.97113391698804,,298.96163915000216,298.97113391698804,299.9524630079977,299.9524630079977,299.9957353679929,303.04666431999067,t,3.087444573000539,None,698285,001,2024-11-16_12h42.00.981,DelayDiscountingExperiment,2024.2.1,89.64746823124996,2024-11-16 12h42.35.942400 +0530,
27,50,21,77,0,11,l,11.037181372987106,None,11,0,77,2,303.0585622159997,,303.05027347098803,303.0585622159997,304.0445994509937,304.0445994509937,304.05213066098804,315.08879511398845,l,11.037181372987106,None,698285,001,2024-11-16_12h42.00.981,DelayDiscountingExperiment,2024.2.1,89.64746823124996,2024-11-16 12h42.35.942400 +0530,
40,55,62,78,1,11,l,2.591743344004499,None,11,1,78,3,315.1040126059961,,315.09462856200116,315.1040126059961,316.0854323379899,316.0854323379899,316.12872364099894,318.68036774398934,l,2.591743344004499,None,698285,001,2024-11-16_12h42.00.981,DelayDiscountingExperiment,2024.2.1,89.64746823124996,2024-11-16 12h42.35.942400 +0530,
15,35,13,79,2,11,t,3.843920329993125,None,11,2,79,1,318.6946661260008,,318.6849092729972,318.6946661260008,319.6768015889975,319.6768015889975,319.69293808699877,323.5292635539954,t,3.843920329993125,None,698285,001,2024-11-16_12h42.00.981,DelayDiscountingExperiment,2024.2.1,89.64746823124996,2024-11-16 12h42.35.942400 +0530,
78,80,162,80,3,11,t,2.1949525450036163,None,11,3,80,6,323.54241926300165,,323.53312892100075,323.54241926300165,324.52666599999066,324.52666599999066,324.5348862769897,326.73008063499583,t,2.1949525450036163,None,698285,001,2024-11-16_12h42.00.981,DelayDiscountingExperiment,2024.2.1,89.64746823124996,2024-11-16 12h42.35.942400 +0530,
49,60,89,81,4,11,t,7.749338497989811,None,11,4,81,4,326.7423628789984,,326.73331124200195,326.7423628789984,327.72782420300064,327.72782420300064,327.73586189799244,335.48035700999026,t,7.749338497989811,None,698285,001,2024-11-16_12h42.00.981,DelayDiscountingExperiment,2024.2.1,89.64746823124996,2024-11-16 12h42.35.942400 +0530,
11,30,7,82,5,11,l,1.5600523610046366,None,11,5,82,0,335.4946336159919,,335.4848390339903,335.4946336159919,336.49377068999456,336.49377068999456,336.5118974349898,338.06368825199024,l,1.5600523610046366,None,698285,001,2024-11-16_12h42.00.981,DelayDiscountingExperiment,2024.2.1,89.64746823124996,2024-11-16 12h42.35.942400 +0530,
67,75,119,83,6,11,t,1.9663571499986574,None,11,6,83,5,338.0771062369895,,338.06828673998825,338.0771062369895,339.0606606809888,339.0606606809888,339.06761852899217,341.03002443398873,t,1.9663571499986574,None,698285,001,2024-11-16_12h42.00.981,DelayDiscountingExperiment,2024.2.1,89.64746823124996,2024-11-16 12h42.35.942400 +0530,
67,75,119,84,0,12,t,3.4844149639975512,None,12,0,84,5,341.03885817399714,,341.03030190498976,341.03885817399714,342.02656529399974,342.02656529399974,342.0345781879878,345.5132140929927,t,3.4844149639975512,None,698285,001,2024-11-16_12h42.00.981,DelayDiscountingExperiment,2024.2.1,89.64746823124996,2024-11-16 12h42.35.942400 +0530,
40,55,62,85,1,12,l,2.3676068350032438,None,12,1,85,3,345.5255030650005,,345.5173513369955,345.5255030650005,346.5096413529973,346.5096413529973,346.5182949979935,348.87896351199015,l,2.3676068350032438,None,698285,001,2024-11-16_12h42.00.981,DelayDiscountingExperiment,2024.2.1,89.64746823124996,2024-11-16 12h42.35.942400 +0530,
15,35,13,86,2,12,l,2.9452168499992695,None,12,2,86,1,348.8907542419911,,348.882067257,348.8907542419911,349.8766872309934,349.8766872309934,349.88546592599596,352.82999046798795,l,2.9452168499992695,None,698285,001,2024-11-16_12h42.00.981,DelayDiscountingExperiment,2024.2.1,89.64746823124996,2024-11-16 12h42.35.942400 +0530,
27,50,21,87,3,12,l,2.0492494400095893,None,12,3,87,2,352.84326647499984,,352.83451051499287,352.84326647499984,353.82711239099444,353.82711239099444,353.8358538649918,355.879556504995,l,2.0492494400095893,None,698285,001,2024-11-16_12h42.00.981,DelayDiscountingExperiment,2024.2.1,89.64746823124996,2024-11-16 12h42.35.942400 +0530,
49,60,89,88,4,12,t,2.9433349150058348,None,12,4,88,4,355.89224119699793,,355.8834415279998,355.89224119699793,356.87730960200133,356.87730960200133,356.8851960059983,359.8292480090022,t,2.9433349150058348,None,698285,001,2024-11-16_12h42.00.981,DelayDiscountingExperiment,2024.2.1,89.64746823124996,2024-11-16 12h42.35.942400 +0530,
78,80,162,89,5,12,t,3.5354837640043115,None,12,5,89,6,359.8424546819879,,359.83319500299694,359.8424546819879,360.8270485749963,360.8270485749963,360.835181492992,364.37059022799076,t,3.5354837640043115,None,698285,001,2024-11-16_12h42.00.981,DelayDiscountingExperiment,2024.2.1,89.64746823124996,2024-11-16 12h42.35.942400 +0530,
11,30,7,90,6,12,t,6.969490011004382,None,12,6,90,0,364.3835043209983,,364.3755811279989,364.3835043209983,365.36812560599355,365.36812560599355,365.3759762720001,372.34697067399975,t,6.969490011004382,None,698285,001,2024-11-16_12h42.00.981,DelayDiscountingExperiment,2024.2.1,89.64746823124996,2024-11-16 12h42.35.942400 +0530,
49,60,89,91,0,13,l,6.927745581997442,None,13,0,91,4,372.3610716989933,,372.35163365899643,372.3610716989933,373.343217592992,373.343217592992,373.35949081298895,380.2790578099957,l,6.927745581997442,None,698285,001,2024-11-16_12h42.00.981,DelayDiscountingExperiment,2024.2.1,89.64746823124996,2024-11-16 12h42.35.942400 +0530,
67,75,119,92,1,13,l,2.8162433300021803,None,13,1,92,5,380.2926462429896,,380.2831059059972,380.2926462429896,381.2770255669893,381.2770255669893,381.2850760579895,384.0962700309901,l,2.8162433300021803,None,698285,001,2024-11-16_12h42.00.981,DelayDiscountingExperiment,2024.2.1,89.64746823124996,2024-11-16 12h42.35.942400 +0530,
15,35,13,93,2,13,l,2.5780298720055725,None,13,2,93,1,384.110110900001,,384.10088435899524,384.110110900001,385.0941484590003,385.0941484590003,385.1018863719946,387.67916069999046,l,2.5780298720055725,None,698285,001,2024-11-16_12h42.00.981,DelayDiscountingExperiment,2024.2.1,89.64746823124996,2024-11-16 12h42.35.942400 +0530,
78,80,162,94,3,13,t,3.517481899994891,None,13,3,94,6,387.6930609330011,,387.6834724479995,387.6930609330011,388.6764840199903,388.6764840199903,388.6846520399995,392.2032597629877,t,3.517481899994891,None,698285,001,2024-11-16_12h42.00.981,DelayDiscountingExperiment,2024.2.1,89.64746823124996,2024-11-16 12h42.35.942400 +0530,
40,55,62,95,4,13,l,4.760033589991508,None,13,4,95,3,392.22280427899386,,392.2118821939948,392.22280427899386,393.2003458830004,393.2003458830004,393.2172912669921,397.963053710002,l,4.760033589991508,None,698285,001,2024-11-16_12h42.00.981,DelayDiscountingExperiment,2024.2.1,89.64746823124996,2024-11-16 12h42.35.942400 +0530,
27,50,21,96,5,13,l,9.951213633001316,None,13,5,96,2,397.97726185699867,,397.9680267599906,397.97726185699867,398.9600380429911,398.9600380429911,398.9676886269881,408.91335573598917,l,9.951213633001316,None,698285,001,2024-11-16_12h42.00.981,DelayDiscountingExperiment,2024.2.1,89.64746823124996,2024-11-16 12h42.35.942400 +0530,
11,30,7,97,6,13,l,13.055702147990814,None,13,6,97,0,408.9284402859921,,408.9192602580006,408.9284402859921,409.9086935249943,409.9086935249943,409.9250714719965,422.97057526299614,l,13.055702147990814,None,698285,001,2024-11-16_12h42.00.981,DelayDiscountingExperiment,2024.2.1,89.64746823124996,2024-11-16 12h42.35.942400 +0530,
